timestamp,accx,accy,accz,gyrx,gyry,gyrz,longitude,latitude,speed
152179060961,0.09308014,-0.776651,9.838196,-0.0048965453,0.01169281,-0.0029281615,77.64152458,12.88084793,0.0
152179060982,-0.25794983,-0.68345034,9.775622,7.2784425E-4,-0.010295105,-0.0045166016,77.64152458,12.88084793,0.0
152179061003,-0.2215744,-0.99212646,9.743917,4.8370362E-4,-0.010289001,-0.006225586,77.64152458,12.88084793,0.0
152179061024,-0.3288971,-0.7409973,9.814626,-8.6517335E-4,-0.004307556,-0.00390625,77.6415251,12.88084797,0.0
152179061045,-0.33080903,-0.8100311,9.7052765,-4.974365E-4,0.009362793,0.0012283325,77.6415251,12.88084797,0.0
152179061066,-0.34851378,-0.69673157,9.962382,1.15966795E-4,0.005331421,-2.3956299E-4,77.6415251,12.88084797,0.0
152179061088,-0.21715088,-0.7667206,9.785436,0.0031661987,-0.013101196,-0.012333679,77.6415251,12.88084797,0.0
152179061109,-0.31333923,-1.0404587,9.650957,0.006095886,-0.008096313,-0.016979981,77.6415251,12.88084797,0.0
152179061130,-0.34983063,-0.7076187,9.922422,4.7912597E-4,0.010456848,-0.016488647,77.6415251,12.88084797,0.0
152179061151,-0.20339051,-0.7731827,9.885813,0.01000824,-0.0015014649,-0.020889282,77.6415251,12.88084797,0.0
152179061173,-0.36741942,-0.908255,9.666151,0.012573242,-0.011512756,-0.073294066,77.6415251,12.88084797,0.0
152179061194,-0.43298188,-0.6909897,9.836759,0.013671875,-0.02519226,-0.0947998,77.6415251,12.88084797,0.0
152179061215,-0.49950105,-0.7754532,9.899571,0.006588745,-2.8686522E-4,-0.034082033,77.64152486,12.88084795,0.0
152179061236,-0.046662904,-0.85106814,9.684934,-0.0037979125,-0.0072402954,0.026271056,77.64152486,12.88084795,0.0
152179061258,-0.47641295,0.33960265,10.096739,0.006097412,9.384155E-4,0.0051345825,77.64152486,12.88084795,0.0
152179061279,-0.43956453,-0.11922149,8.871614,0.00683136,0.016445924,0.044332884,77.64152486,12.88084795,0.0
152179061300,-0.2293518,-0.36640167,9.103601,0.005973816,0.02035675,0.08453064,77.64152486,12.88084795,0.0
152179061321,-0.12023926,-0.1549942,8.468542,0.0078063966,-0.04144287,0.10236969,77.64152486,12.88084795,0.0
152179061343,-0.36418915,0.5480148,8.378334,0.021003723,-0.0657547,0.09931793,77.64152486,12.88084795,0.0
152179061364,-1.1344391,0.5510071,9.790819,0.033952333,-0.03276825,0.08941956,77.64152486,12.88084795,0.0
152179061385,-1.4779297,0.61812896,10.983762,-0.0020858764,0.05774231,0.13926391,77.64152486,12.88084795,0.0
152179061406,0.059220888,1.1997025,10.4579315,0.01941681,0.019136047,0.08881073,77.64152486,12.88084795,0.0
152179061428,0.3378647,0.32225496,9.135183,0.012571717,0.07863464,0.032492064,77.64151678,12.88084668,0.82
152179061449,0.8494522,0.04397125,8.443298,-0.009782409,-0.015304565,-0.14488983,77.64151678,12.88084668,0.82
152179061470,-0.8492157,0.5287552,8.752095,-0.005509949,-0.025315857,-0.17616577,77.64151678,12.88084668,0.82
152179061492,-0.34672087,0.47192383,8.58304,-0.011741638,-0.05,-0.06340027,77.64151678,12.88084668,0.82
152179061513,-1.142334,0.6594055,8.989702,-0.0018447876,6.9580076E-4,-0.028096009,77.64150031,12.88085006,1.99
152179061534,-0.9863205,0.69457704,9.312849,0.009030151,0.024143983,-0.016365051,77.64150031,12.88085006,1.99
152179061555,-0.48107758,0.5328247,10.551494,0.012696838,0.02475891,-0.0559494,77.64150031,12.88085006,1.99
152179061577,-0.83964384,0.52420807,9.918953,0.01623993,0.07802276,-0.024430847,77.64150031,12.88085006,1.99
152179061598,0.22372589,0.47646943,10.1670885,0.045440674,-0.0032150268,-0.1583313,77.64150031,12.88085006,1.99
152179061619,-0.22600555,0.5262405,10.188383,0.04372711,-0.20650177,-0.36065063,77.64148255,12.88087065,2.81
152179061640,-0.6782486,-0.028175354,9.985591,0.06315155,-0.22702484,-0.12375488,77.64148255,12.88087065,2.81
152179061662,-0.85974425,0.65497434,9.272413,0.18594055,-0.06575775,0.15648957,77.64148255,12.88087065,2.81
152179061683,-0.31705016,-1.5786026,8.527046,-0.3920456,0.006071472,0.19057617,77.64148255,12.88087065,2.81
152179061704,-0.30101928,1.0550568,11.07588,-0.2818451,0.007170105,0.13853149,77.64148255,12.88087065,2.81
152179061725,-0.6896149,0.33098754,9.681587,0.4197754,0.07118378,0.13767394,77.64146259,12.88089894,3.46
152179061747,-0.41922456,0.3114868,10.791975,-0.07391052,0.1530365,0.14573821,77.64146259,12.88089894,3.46
152179061768,1.4563888,-1.241217,8.588068,-0.08246155,-0.021044921,-0.17372283,77.64146259,12.88089894,3.46
152179061789,-0.93990326,-0.6808197,11.518079,0.063027956,-0.14675598,-0.1991394,77.64146259,12.88089894,3.46
152179061811,-0.45128784,-0.78717804,9.307707,0.07879333,-0.24486694,-0.020521546,77.64143887,12.88093385,4.45
152179061832,-1.811966,-1.1354568,9.841425,-0.0080657955,-0.050245665,0.30334473,77.64143887,12.88093385,4.45
152179061853,0.8362915,-0.972023,9.646292,-0.034330748,0.18357849,0.36454925,77.64143887,12.88093385,4.45
152179061875,0.62548065,-0.9632904,9.883777,0.096141055,0.15450592,-0.061573792,77.64143887,12.88093385,4.45
152179061895,0.5164887,-1.0671371,11.257734,-0.072817996,-0.063194275,-0.26022187,77.64143887,12.88093385,4.45
152179061917,-0.71306455,-1.0020554,8.701007,0.03188324,-0.18560639,-0.07085266,77.64141192,12.88096981,4.31
152179061938,-0.6269226,-1.0720444,9.682899,-0.0075775147,-0.04925995,0.20157318,77.64141192,12.88096981,4.31
152179061959,-0.3771103,-0.9563507,9.071773,0.00964508,-0.03412018,0.057537843,77.64141192,12.88096981,4.31
152179061980,-0.49339905,-1.3856232,9.958316,0.0028030395,0.082911685,0.19313812,77.64141192,12.88096981,4.31
152179062002,0.20458679,-0.842334,10.063121,-0.021629333,0.19225769,0.13279113,77.64141192,12.88096981,4.31
152179062023,0.06173401,-1.0160538,12.497339,-0.084178165,0.21131286,-0.035058595,77.64138527,12.88100288,4.12
152179062044,0.24885102,-1.015094,8.013788,0.08477326,0.15645905,-0.26266328,77.64138527,12.88100288,4.12
152179062065,0.14009857,-0.81732786,10.719831,-0.03702545,-0.043888856,-0.4356598,77.64138527,12.88100288,4.12
152179062087,-0.45033112,-0.74159396,9.2324505,-0.01234436,-0.2122467,-0.33425292,77.64138527,12.88100288,4.12
152179062108,-1.0634934,0.026861573,10.207169,0.22148895,-0.14663391,-0.033717345,77.64138527,12.88100288,4.12
152179062130,-0.08685913,-0.7929214,7.1022415,-0.07342529,-0.11486664,-0.0025634766,77.64136414,12.88103249,3.68
152179062150,-0.7934601,0.15511322,8.821485,-0.043865968,-0.085913084,0.046788026,77.64136414,12.88103249,3.68
152179062172,-0.74177706,0.13118592,10.917358,0.21452789,-0.035586547,0.10371246,77.64136414,12.88103249,3.68
152179062193,-0.3241089,0.098883055,10.443937,0.02185974,-0.0025985718,0.09650574,77.64136414,12.88103249,3.68
152179062215,-0.31980285,-0.46295014,8.011874,-0.11813812,-0.0045562745,0.06632843,77.64134596,12.8810651,4.17
152179062235,0.29360047,0.104867555,10.120191,-0.09468384,0.074725345,0.1409729,77.64134596,12.8810651,4.17
152179062257,0.22911224,-0.27882537,10.539533,0.033346556,0.034410097,-0.049597166,77.64134596,12.8810651,4.17
152179062278,-0.39014894,-0.1460205,9.680865,0.1100647,-0.034362793,-0.0129470825,77.64134596,12.8810651,4.17
152179062299,-0.31083068,0.017526245,10.003542,-0.058886718,-0.014573669,0.02210846,77.64134596,12.8810651,4.17
152179062320,-0.048216246,-0.022073364,9.525332,-0.07732697,-0.06221466,0.010140991,77.64132549,12.88109975,4.57
152179062342,-0.73531646,0.05102844,10.320589,0.08209076,-0.01884613,0.0625412,77.64132549,12.88109975,4.57
152179062363,-0.4125244,-0.43220368,9.194407,0.052404784,0.04784851,0.03529968,77.64132549,12.88109975,4.57
152179062385,0.9140549,-1.3401611,4.217334,-0.19925842,0.09219666,0.064013675,77.64132549,12.88109975,4.57
152179062405,-0.23916626,-0.14566346,11.381805,0.11141205,-0.021536255,-0.064381406,77.64132549,12.88109975,4.57
152179062427,-0.26153564,-0.124723814,10.620409,0.092227176,-0.068322755,-0.063891605,77.64129659,12.88114033,5.14
152179062448,-0.519725,-0.48293152,8.7992325,-0.10603943,-0.10045318,0.04250946,77.64129659,12.88114033,5.14
152179062469,-0.5557373,-0.81242216,9.687327,-0.07037201,-0.009318543,0.09858246,77.64129659,12.88114033,5.14
152179062491,-0.014237976,-0.87104493,9.568285,0.07878723,0.09744873,0.09662781,77.64129659,12.88114033,5.14
152179062512,0.17599182,-1.5687927,10.250717,-0.10298462,0.07814636,-0.025286864,77.64127169,12.88118436,5.63
152179062533,-0.20063934,-0.2416153,10.124619,0.16223755,-0.037171938,-0.10029755,77.64127169,12.88118436,5.63
152179062555,0.17479095,-1.6634277,9.055862,-0.050941467,-0.059773255,-0.033714294,77.64127169,12.88118436,5.63
152179062576,-0.26668245,-1.2860825,7.99608,-0.08661957,-0.06490173,0.007331848,77.64127169,12.88118436,5.63
152179062597,-0.32961425,-1.8894348,9.51887,0.07072754,0.04332886,0.08269958,77.64127169,12.88118436,5.63
152179062618,0.12406616,-1.1693115,8.676958,-0.019313049,0.07937012,0.03640442,77.64124457,12.88123078,5.61
152179062640,0.2706253,-0.9760925,10.91353,-0.05632324,0.040766906,-0.07818298,77.64124457,12.88123078,5.61
152179062661,-0.41396028,-0.9641266,10.190298,0.057652283,-0.039367676,-0.14073333,77.64124457,12.88123078,5.61
152179062682,-0.76199645,-1.372583,9.617577,0.061442565,-0.059527587,-0.010134888,77.64124457,12.88123078,5.61
152179062703,-0.1281372,-0.86805725,9.602025,-0.049841307,-0.027519226,-0.0031723022,77.64124457,12.88123078,5.61
152179062725,-0.20207366,-0.8606369,9.920866,0.004876709,-0.019459534,0.008433533,77.64122025,12.88127333,5.32
152179062746,-0.589711,-1.0625916,9.800865,0.011352539,0.029402161,0.044215392,77.64122025,12.88127333,5.32
152179062767,0.53862154,-1.0036072,9.713768,0.00365448,0.035505675,-0.05045166,77.64122025,12.88127333,5.32
152179062788,0.19345856,-0.86805725,9.638753,-0.016256714,-0.087747194,-0.16553345,77.64122025,12.88127333,5.32
152179062810,-0.6893738,-0.76648104,9.962024,0.007933045,-0.08518219,0.03982086,77.64122025,12.88127333,5.32
152179062831,0.14320984,-0.88839567,10.112413,0.025767516,-0.016041566,0.04397125,77.64119857,12.88131116,5.08
152179062852,0.124902345,-0.8235504,10.033209,-0.017477417,-0.1378357,-0.056925964,77.64119857,12.88131116,5.08
152179062873,-1.6259247,0.14781494,9.961424,0.05863037,-0.11584473,0.10713653,77.64119857,12.88131116,5.08
152179062895,-0.5042877,0.25525513,10.724495,-0.0436203,0.11723938,0.26986694,77.64119857,12.88131116,5.08
152179062916,1.2049057,-0.52037966,10.860286,0.0017074585,0.22646484,0.10090943,77.641175,12.88135065,4.96
152179062937,0.011843872,-0.67842406,8.809401,0.28538513,0.06592865,-0.16529235,77.641175,12.88135065,4.96
152179062958,-0.74153745,0.12783813,9.931036,-0.36223298,-0.03741608,-0.084294125,77.641175,12.88135065,4.96
152179062980,-0.06053772,0.1328598,8.474765,0.028829956,-0.04938507,-0.06572266,77.641175,12.88135065,4.96
152179063001,-0.28989258,-0.46402436,10.3875885,0.026873779,0.011447144,-0.022843933,77.641175,12.88135065,4.96
152179063022,-0.43609315,0.23372039,9.632889,-0.02578125,-0.05316925,-0.034080505,77.64114981,12.88139113,4.99
152179063043,-0.3956543,-0.5650055,10.294864,0.06291046,0.019140625,0.017720032,77.64114981,12.88139113,4.99
152179063065,0.037449647,-0.16217346,9.962384,-0.0077026365,0.068251036,0.006846619,77.64114981,12.88139113,4.99
152179063086,0.0427124,-0.3497711,9.72011,0.038108826,0.027568053,-0.1181366,77.64114981,12.88139113,4.99
152179063107,-0.49579316,-0.2513031,9.720108,0.038597107,-0.030206298,-0.089912415,77.64114981,12.88139113,4.99
152179063128,0.18963012,-0.6991211,9.475565,-0.023580933,-0.10216065,-0.107997134,77.64111581,12.88144276,5.56
152179063150,-0.7359146,-0.43387756,9.214627,-0.025292968,-0.09923096,-0.027610779,77.64111581,12.88144276,5.56
152179063171,-0.3631134,-0.8912674,9.731115,-0.021629333,-0.027398681,0.06840668,77.64111581,12.88144276,5.56
152179063192,-0.4491318,-0.61322176,11.006848,-0.118745424,0.060798645,0.057167053,77.64111581,12.88144276,5.56
152179063213,0.17168427,-1.2270997,9.328046,0.110551454,0.06556244,-0.058514405,77.64111581,12.88144276,5.56
152179063235,-0.36897582,-1.3163528,10.585953,-0.05155945,0.007411194,-0.07488556,77.64110103,12.88148861,5.66
152179063256,-0.2000412,-1.4576477,8.410517,0.005856323,0.021463012,-0.031269837,77.64110103,12.88148861,5.66
152179063277,0.49806365,-1.1191833,8.993052,0.08710022,0.049926758,-0.068287656,77.64110103,12.88148861,5.66
152179063298,0.573439,-0.733699,8.657338,0.014289856,-0.050364684,-0.1723816,77.64110103,12.88148861,5.66
152179063320,0.08135529,-1.6700103,10.409839,-0.01612854,-0.21675721,-0.18313141,77.64107603,12.88153658,5.55
152179063341,-0.4394455,-2.3086562,8.575262,0.028953552,-0.29849395,-0.030659486,77.64107603,12.88153658,5.55
152179063362,-0.09463501,-0.47958222,10.851916,-0.18349762,-0.14724274,0.2593628,77.64107603,12.88153658,5.55
152179063383,-0.7355545,-1.3310668,14.832973,0.24274597,0.21473542,0.3727356,77.64107603,12.88153658,5.55
152179063405,1.2521636,-1.7719437,7.780008,-0.18875274,0.17283173,-0.0014724731,77.64107603,12.88153658,5.55
152179063426,-0.3570099,-0.017167663,10.277637,0.18618317,0.048461914,-0.10482025,77.64106172,12.88158265,5.47
152179063447,0.4298706,-1.0446472,9.965973,0.10982208,-0.022395324,-0.050819397,77.64106172,12.88158265,5.47
152179063468,-0.30891418,-0.08069458,9.973149,-0.2084198,-0.10961761,-0.021133423,77.64106172,12.88158265,5.47
152179063490,-0.5727234,-0.46630096,8.75652,0.05765686,-0.027886963,0.08110809,77.64106172,12.88158265,5.47
152179063511,0.30903167,-0.50315094,10.783239,-0.16798249,0.037095644,0.09027405,77.64106172,12.88158265,5.47
152179063532,-0.14345245,0.059281923,8.01259,0.20951691,0.021342468,0.04324188,77.64102804,12.88163029,5.29
152179063553,-0.06388855,-0.29748687,10.588824,-0.10323028,-0.04255066,-0.028952027,77.64102804,12.88163029,5.29
152179063575,-0.31549376,-0.31375885,8.292313,0.20878449,-0.060865782,0.015275573,77.64102804,12.88163029,5.29
152179063596,0.007296753,-1.4932998,10.422401,-0.3203308,-0.013356018,0.05166626,77.64102804,12.88163029,5.29
152179063618,-0.14452668,0.59934235,9.541964,0.057417296,0.011201477,0.10041199,77.64100143,12.88167753,6.18
152179063638,-0.2221756,-0.65641177,12.437996,0.14818573,0.12518463,0.012466431,77.64100143,12.88167753,6.18
152179063660,0.06580047,-0.7621735,8.854983,-0.09810333,-0.010049438,-0.0068389894,77.64100143,12.88167753,6.18
152179063681,-0.79250336,-0.48879242,9.873012,0.06266479,0.025376892,-0.004273987,77.64100143,12.88167753,6.18
152179063702,-0.3643097,-0.7637283,10.002462,-0.012345886,0.1438736,0.06864472,77.64100143,12.88167753,6.18
152179063723,0.283786,-0.46414948,9.697858,0.028825378,0.15034637,-0.09944153,77.64096983,12.88172304,5.94
152179063745,0.21977691,-0.19662781,10.268903,-0.0059921267,0.042233277,-0.1772644,77.64096983,12.88172304,5.94
152179063766,0.57259977,-0.6731613,9.943359,0.03175354,-0.14260101,-0.23261109,77.64096983,12.88172304,5.94
152179063787,-0.50883484,-0.5555542,9.773829,0.041160583,-0.2861603,-0.13792725,77.64096983,12.88172304,5.94
152179063808,-0.8127243,-0.5528015,9.906988,-0.009417725,-0.17399445,0.110672,77.64096983,12.88172304,5.94
152179063830,-0.49101105,-0.50889283,9.514087,-0.03775177,-0.0139633175,0.13144532,77.64094208,12.88176839,5.67
152179063851,-0.15302277,-0.5349747,10.4931135,0.061320495,0.036239624,0.06596069,77.64094208,12.88176839,5.67
152179063872,0.072740175,-0.5575882,9.361186,-0.007952881,-0.02446289,-0.02064209,77.64094208,12.88176839,5.67
152179063893,-0.359523,-0.58235013,11.252356,0.001828003,-0.035096742,0.033836365,77.64094208,12.88176839,5.67
152179063915,-0.18197632,-0.5475372,6.858771,0.067799374,0.05896149,0.10995026,77.64091779,12.88181383,5.67
152179063936,-0.7378265,-3.21362,7.4925094,-0.7144562,0.05335083,0.06352844,77.64091779,12.88181383,5.67
152179063957,-0.3254257,0.1387268,9.577616,0.5520859,-0.14419098,-0.21501617,77.64091779,12.88181383,5.67
152179063978,-0.8063858,-1.1695511,11.03652,-0.018078614,-0.13368073,0.10139618,77.64091779,12.88181383,5.67
152179064000,-0.63613284,-0.55388033,8.780568,-0.04899292,0.12053986,0.25727692,77.64091779,12.88181383,5.67
152179064021,0.60190886,-0.4959732,12.087687,0.10811462,0.32456666,0.07525482,77.64087881,12.88187074,6.62
152179064042,0.2128418,-0.4630707,10.136461,-0.19497986,0.1023407,-0.1558899,77.64087881,12.88187074,6.62
152179064063,-0.14883575,-1.130069,9.06747,0.24372253,-0.0723526,-0.15979767,77.64087881,12.88187074,6.62
152179064085,-0.6969131,-0.4281372,11.401784,-0.042152405,-0.09300079,-0.0044006347,77.64087881,12.88187074,6.62
152179064106,-0.111149594,-1.2236313,8.655424,0.015873719,-0.03741455,-0.033959962,77.64087881,12.88187074,6.62
152179064127,0.36670226,-1.7922837,9.890239,0.019291688,-0.087869264,-0.05252838,77.64084774,12.88192192,6.6
152179064148,0.16558227,-1.9640884,8.800426,-0.005633545,-0.14920044,-0.04691162,77.64084774,12.88192192,6.6
152179064170,-0.75661314,-2.5490143,9.414187,-0.0042831423,-0.13184968,0.08697815,77.64084774,12.88192192,6.6
152179064191,-0.5765518,-1.7986237,9.839989,-0.042521667,0.03599701,0.24799652,77.64084774,12.88192192,6.6
152179064212,0.4979431,-2.682054,9.261525,0.012339783,0.11882629,0.08551178,77.64081926,12.881973,6.79
152179064233,0.1957306,-2.1075377,9.458453,-0.03701935,0.008146668,-0.08942413,77.64081926,12.881973,6.79
152179064255,-0.50249636,-1.8812973,10.00617,0.02980194,-0.024346923,0.00721283,77.64081926,12.881973,6.79
152179064276,-0.73256224,-1.9078567,9.381167,-0.0072143553,0.06592865,0.10090027,77.64081926,12.881973,6.79
152179064297,0.07788086,-1.3948349,10.216379,0.009521484,0.13458557,0.046173096,77.64081926,12.881973,6.79
152179064318,0.42759553,-1.2254226,9.907228,0.04128418,0.010223389,-0.1694458,77.64078403,12.88200755,6.27
152179064340,-0.4667221,-1.7449051,11.032573,-0.13279876,-0.14846954,-0.15246582,77.64078403,12.88200755,6.27
152179064361,-1.1331253,-0.23503418,13.3635435,0.20255585,-0.12085571,-0.06670685,77.64078403,12.88200755,6.27
152179064382,-1.4359344,-3.4898713,14.069664,0.07525177,-0.09117279,0.10456848,77.64078403,12.88200755,6.27
152179064403,-1.1304916,0.2241455,8.940167,0.023571778,0.033921815,0.35270232,77.64078403,12.88200755,6.27
152179064425,-0.17467651,-0.9010773,9.868223,0.03151245,0.24039307,0.19765778,77.64076292,12.88202995,4.43
152179064446,0.6412735,-0.43818513,8.941843,-0.19680938,0.30648652,0.035180666,77.64076292,12.88202995,4.43
152179064467,0.9806961,-0.6735199,10.572672,-0.06988068,0.13922882,-0.37652892,77.64076292,12.88202995,4.43
152179064489,0.0059783934,-0.1423111,10.779291,0.2846527,-0.12940827,-0.47365722,77.64076292,12.88202995,4.43
152179064510,-0.9680206,-0.64540255,12.178014,0.02124939,-0.29483184,-0.3169098,77.64076292,12.88202995,4.43
152179064531,-1.6310685,0.41174468,11.754369,-0.045941163,-0.23691864,0.07354126,77.64073985,12.88205014,3.91
152179064552,-1.0296341,-0.81733096,11.785474,0.020515442,0.0069244383,0.2704773,77.64073985,12.88205014,3.91
152179064573,0.2830719,-0.7601379,10.035482,-0.07500915,0.115162656,0.13877563,77.64073985,12.88205014,3.91
152179064595,-0.14608154,-1.0884354,10.104398,0.049835205,0.08144379,-0.057905577,77.64073985,12.88205014,3.91
152179064616,-0.021894837,-0.77963865,9.65024,0.0070755007,0.018041993,-0.10249634,77.6407284,12.88207212,3.94
152179064637,-0.15613556,-0.503389,9.737938,-0.0026947022,-0.050849915,-0.12558746,77.6407284,12.88207212,3.94
152179064658,-0.7773102,-0.87332,10.146749,0.021614075,-0.060502626,-0.034571838,77.6407284,12.88207212,3.94
152179064680,-0.4378891,-0.83874357,9.906751,-0.033970643,-0.023120116,0.023704529,77.6407284,12.88207212,3.94
152179064701,0.21463624,-0.8822937,9.207687,-0.0015991211,-0.024949646,-0.016488647,77.6407284,12.88207212,3.94
152179064722,-0.5267822,-1.0530212,9.62009,0.033708192,-0.014326477,0.0040359497,77.64070481,12.8821129,4.6
152179064744,-0.24861602,-0.8924637,10.164696,-0.01320343,0.0132751465,0.028590392,77.64070481,12.8821129,4.6
152179064765,0.35257873,-0.87044984,9.501765,-0.0012329102,0.0026474,-0.029194642,77.64070481,12.8821129,4.6
152179064786,-0.40462798,-1.0913086,9.969561,0.037374876,-6.4544677E-4,-0.03957977,77.64070481,12.8821129,4.6
152179064807,0.021055603,-0.977887,9.257217,0.0070755007,-8.987427E-4,-0.034205627,77.64070481,12.8821129,4.6
152179064829,-0.22002105,-1.0658233,9.335584,-0.027005006,-0.06453552,-0.093702696,77.64068153,12.88214821,4.28
152179064850,-0.5145752,-0.9958313,9.956761,0.004508972,-0.10607453,-0.03701172,77.64068153,12.88214821,4.28
152179064871,-0.88367003,-0.91507566,9.252072,-0.0059921267,-0.02678833,0.1291214,77.64068153,12.88214821,4.28
152179064892,-0.72993314,-1.1804367,9.150737,-0.03641205,0.09402466,0.19631958,77.64068153,12.88214821,4.28
152179064914,0.008970642,-0.88253176,9.482742,-0.022001648,0.22108611,0.13278961,77.64065315,12.88218975,4.06
152179064935,0.5690109,-0.8901886,9.461683,-0.0028182983,0.24441986,-0.11593475,77.64065315,12.88218975,4.06
152179064956,0.35557097,-1.243129,9.968486,0.03261261,0.14155121,-0.33596802,77.64065315,12.88218975,4.06
152179064977,-0.06819763,-1.5486953,9.835324,0.084164426,0.05529938,-0.4294342,77.64065315,12.88218975,4.06
152179064999,-0.22887726,-1.4089524,9.781845,0.03945007,0.028300475,-0.37530977,77.64065315,12.88218975,4.06
152179065020,-0.30508882,-1.4202011,9.758154,0.04140625,0.018774414,-0.41904753,77.64063398,12.88221666,3.75
152179065041,-0.60275424,-1.11978,9.602743,0.045928955,0.033798218,-0.3773819,77.64063398,12.88221666,3.75
152179065062,-0.2718277,-0.9826706,10.157518,0.06950531,0.026835632,-0.40499115,77.64063398,12.88221666,3.75
152179065084,0.25567323,-1.1382065,9.547824,0.13425751,-0.03607025,-0.53987426,77.64063398,12.88221666,3.75
152179065105,-0.7786255,-0.62123567,10.346433,0.12875672,-0.09984283,-0.4735321,77.64063398,12.88221666,3.75
152179065126,-0.632782,-0.20141754,11.064036,0.15636902,-0.11572418,-0.3312027,77.64063135,12.88223602,2.66
152179065147,-0.53815,-0.7316635,7.648883,0.16382293,-0.08689423,-0.24116668,77.64063135,12.88223602,2.66
152179065169,-0.501297,-0.5090103,12.595566,-0.09907989,-0.03069458,-0.18239899,77.64063135,12.88223602,2.66
152179065190,-0.48682252,-0.5713455,7.9454713,-0.02797699,0.03502045,-0.09907532,77.64063135,12.88223602,2.66
152179065211,-0.05982361,-0.028652955,11.599195,0.019415284,0.10905762,-0.18887177,77.64064405,12.8822762,3.12
152179065232,0.10324554,-0.6662216,7.340088,0.1783615,0.10257874,-0.27671662,77.64064405,12.8822762,3.12
152179065254,0.42819518,-0.8703308,10.078314,-0.08747711,0.11895142,-0.3738373,77.64064405,12.8822762,3.12
152179065275,0.08590241,-0.16696015,9.655383,-0.013807679,0.044917297,-0.48551026,77.64064405,12.8822762,3.12
152179065296,-0.632782,0.36640167,10.745791,0.41024476,-0.06563263,-0.54781646,77.64064405,12.8822762,3.12
152179065317,-0.6415146,0.086560056,10.492632,0.016978454,-0.12757416,-0.41953737,77.64065698,12.8823057,2.84
152179065339,-0.73136747,1.2406174,11.845057,0.014045715,-0.111328125,-0.27732697,77.64065698,12.8823057,2.84
152179065360,-0.6752548,0.7411194,11.086767,0.08465729,-0.08175812,-0.26340026,77.64065698,12.8823057,2.84
152179065381,0.32625884,-0.21086732,9.081705,-0.046183776,-0.08017273,-0.19950409,77.64065698,12.8823057,2.84
152179065403,-0.7763519,-0.2620743,9.546153,0.061808776,-0.029107666,-0.1681076,77.64065698,12.8823057,2.84
152179065424,-0.43668976,-0.040257264,9.260328,0.0087890625,0.041377258,-0.105551146,77.64068715,12.88233016,3.86
152179065445,-0.41719055,0.15942383,11.110342,-0.05290375,0.055178832,-0.18141937,77.64068715,12.88233016,3.86
152179065466,-0.09607391,-0.15224151,9.549501,0.23639373,0.0032592774,-0.28343353,77.64068715,12.88233016,3.86
152179065487,-0.34923553,0.08847656,10.29331,0.029554749,-0.046453856,-0.23676758,77.64068715,12.88233016,3.86
152179065509,-0.15505524,0.22869721,9.561468,0.031144714,-0.123176575,-0.2621765,77.64068715,12.88233016,3.86
152179065530,-0.41670838,0.006399536,10.151296,0.08587799,-0.18133087,-0.23089752,77.64072423,12.88234748,4.58
152179065551,-0.4975876,0.50290984,10.323341,0.029922485,-0.21957397,-0.10091095,77.64072423,12.88234748,4.58
152179065573,-1.0420746,0.548494,9.956522,0.038719177,-0.16642456,0.03176117,77.64072423,12.88234748,4.58
152179065594,-0.3700531,0.36209717,10.234324,-0.047035217,-0.044010926,0.14708252,77.64072423,12.88234748,4.58
152179065615,0.43860322,0.062991336,9.761744,0.0023117065,-0.013468933,0.06254425,77.64076953,12.88236196,4.89
152179065636,-0.18173523,-0.16026,9.557037,0.015870666,-0.042300414,0.033592224,77.64076953,12.88236196,4.89
152179065658,-0.35318297,-0.04145355,9.873728,-0.04007416,-0.009075928,0.09662628,77.64076953,12.88236196,4.89
152179065679,-0.18975373,-0.043251038,9.820608,-0.017967224,0.09329681,0.14316864,77.64076953,12.88236196,4.89
152179065700,0.6302673,0.03152466,9.286888,-0.03298645,0.11296539,0.014779663,77.64076953,12.88236196,4.89
152179065721,0.0279953,0.3972702,10.175822,-0.013079834,0.016455078,-0.11727905,77.64083135,12.88238508,5.13
152179065743,-0.009454345,-0.30095673,9.739611,-0.017352294,-0.062091064,-0.079776004,77.64083135,12.88238508,5.13
152179065764,-0.22300872,-0.88049924,9.238075,-0.029202271,-0.08652496,-0.015267944,77.64083135,12.88238508,5.13
152179065785,-0.99062955,-0.80775297,11.449522,-0.0077041625,-0.07064362,0.023820495,77.64083135,12.88238508,5.13
152179065806,-0.15146485,-0.89449614,11.0035,0.023205567,-0.005166626,0.09405975,77.64083135,12.88238508,5.13
152179065828,0.4414749,-0.9979874,11.370916,0.062051393,0.03514099,0.045806885,77.64088648,12.88241111,5.51
152179065849,0.25387725,-0.68799436,9.42998,-0.0075790407,-7.69043E-4,-0.012336731,77.64088648,12.88241111,5.51
152179065870,-0.3940979,-0.3911667,10.091476,-0.053141784,-0.03301697,-0.010133361,77.64088648,12.88241111,5.51
152179065891,-0.27625123,0.30550233,10.126411,-0.004772949,-0.07675171,-0.017344665,77.64088648,12.88241111,5.51
152179065913,-1.1418533,0.11419678,10.593371,0.018928528,-0.052441407,0.081840515,77.64092015,12.88241943,4.89
152179065934,-0.48059693,-0.8769104,11.783562,-0.034582518,-0.042668153,0.08453064,77.64092015,12.88241943,4.89
152179065955,-0.1214386,-0.6997223,10.484854,0.033953857,-0.024220277,0.1040802,77.64092015,12.88241943,4.89
152179065976,-0.6074203,-0.9216553,10.477797,0.057041932,0.05762024,0.20193633,77.64092015,12.88241943,4.89
152179065998,0.53993684,-1.0237106,9.234007,0.123506166,0.017674256,0.03591614,77.64092015,12.88241943,4.89
152179066019,-0.036610413,-1.3654038,10.751295,0.024551392,-0.052685548,-0.0030563355,77.64095309,12.88242126,4.35
152179066040,-0.4658844,-0.710968,8.986829,0.026011657,-0.038027953,0.1448822,77.64095309,12.88242126,4.35
152179066061,0.25914,-3.347737,9.328763,-0.033966064,0.0942749,0.16871186,77.64095309,12.88242126,4.35
152179066083,0.5241455,-2.9961135,7.5341477,0.11739807,0.0028930665,0.14342041,77.64095309,12.88242126,4.35
152179066104,0.6485733,-0.40312958,9.598793,-0.08051453,-0.034121703,-0.11129608,77.64095309,12.88242126,4.35
152179066125,-0.4414795,-1.2062836,8.310618,0.04458313,-0.15274048,0.011360168,77.64098313,12.88243963,3.94
152179066146,-1.0548751,-1.0953751,11.163099,-0.03616638,-0.14333649,0.25019836,77.64098313,12.88243963,3.94
152179066168,-1.1668594,-0.8187622,10.121387,-0.04263916,0.0043640137,0.57639617,77.64098313,12.88243963,3.94
152179066189,0.28510284,-1.4738022,9.918714,-0.014788819,0.10135651,0.58751523,77.64098313,12.88243963,3.94
152179066210,0.5027298,-0.82259065,9.415265,-0.062307738,0.08901825,0.41879272,77.64101383,12.88246008,3.47
152179066231,0.024526978,-1.0556549,10.416898,0.026377868,0.004855347,0.18862304,77.64101383,12.88246008,3.47
152179066253,-0.20255432,-1.3213775,9.917158,0.08721771,-0.054519653,0.22624817,77.64101383,12.88246008,3.47
152179066274,-0.56985015,-1.2012542,10.560231,-0.02090149,-0.057447813,0.3105499,77.64101383,12.88246008,3.47
152179066295,-0.21499634,-1.3485352,10.006052,-0.03616791,-0.09703064,0.40962678,77.64101383,12.88246008,3.47
152179066317,-0.6745392,-0.67758787,9.829341,0.050570678,-0.08017425,0.53229064,77.64103016,12.88248677,3.33
152179066338,-0.6185471,-0.252623,10.158953,0.08037567,-0.043769836,0.7044296,77.64103016,12.88248677,3.33
152179066359,-0.043908693,-0.2022522,9.396001,0.0805008,-0.003579712,0.69490206,77.64103016,12.88248677,3.33
152179066380,-0.15302429,-0.050787352,9.6657915,0.065597534,0.028178405,0.59545743,77.64103016,12.88248677,3.33
152179066401,-0.097148135,0.0439682,10.358516,0.042262267,0.038928222,0.492099,77.64103016,12.88248677,3.33
152179066423,0.0074157715,0.15427704,9.078234,0.033589173,0.013032531,0.36845857,77.64101831,12.88251183,2.76
152179066444,-0.43202513,0.22199097,8.823278,0.022103881,-0.016647339,0.2687729,77.64101831,12.88251183,2.76
152179066465,-1.224646,0.19579467,11.917917,0.02821045,-0.052441407,0.28672487,77.64101831,12.88251183,2.76
152179066487,-0.16450958,0.5845062,11.648964,0.03859558,-0.054270934,0.30419618,77.64101831,12.88251183,2.76
152179066508,0.53431547,-1.0950134,8.201384,0.032003783,-0.051829528,0.33168793,77.64101831,12.88251183,2.76
152179066529,-0.2933609,-1.2852463,8.338493,0.028825378,-0.0045532226,0.38703004,77.64099432,12.88253389,3.1
152179066550,-0.8128433,-0.953598,9.966692,0.028701782,0.15144654,0.45336303,77.64099432,12.88253389,3.1
152179066572,0.67716825,-0.7189835,8.903559,0.015138244,0.26360625,0.3513565,77.64099432,12.88253389,3.1
152179066593,0.6468994,-0.74674225,9.6892395,0.0051208497,0.29610595,0.075250246,77.64099432,12.88253389,3.1
152179066614,0.42029724,0.006283569,10.397398,0.015505982,0.22022858,-0.18362427,77.64096638,12.88255107,3.61
152179066635,-0.0051467894,0.124607846,12.163778,0.037861634,0.06580963,-0.38581237,77.64096638,12.88255107,3.61
152179066657,-0.8354553,0.08416748,12.728846,0.04617157,-0.080905154,-0.36039886,77.64096638,12.88255107,3.61
152179066678,-1.0360916,0.30370942,12.510141,0.029678345,-0.2149292,-0.28771058,77.64096638,12.88255107,3.61
152179066699,-0.32422638,-0.4609146,9.259493,0.014163208,-0.16825409,0.0013412476,77.64096638,12.88255107,3.61
152179066720,-1.1431717,-0.3089737,9.43297,-0.002696228,0.06483002,0.21073762,77.64093822,12.88257107,3.73
152179066742,0.22970887,-0.34988862,9.905436,-0.015769958,0.24662629,0.09223022,77.64093822,12.88257107,3.73
152179066763,0.13112488,-0.14159699,10.419771,0.009765625,0.21045837,-0.20071869,77.64093822,12.88257107,3.73
152179066784,0.8963501,-0.5898895,9.856977,0.06156311,0.02756958,-0.4010849,77.64093822,12.88257107,3.73
152179066805,0.4654007,-0.69972384,9.490878,0.0758606,-0.21504822,-0.4525284,77.64093822,12.88257107,3.73
152179066827,-1.1604019,-0.2508255,9.519354,0.020758057,-0.30558014,-0.17079315,77.64092027,12.88261441,4.31
152179066848,-1.1838486,-0.13657227,10.073291,0.0013336182,-0.14028168,0.13498688,77.64092027,12.88261441,4.31
152179066869,-0.024047852,-0.27140656,10.107625,-0.0028182983,0.032701112,0.12900086,77.64092027,12.88261441,4.31
152179066890,0.2531601,-0.20787506,9.838554,0.0028015138,0.0031372071,-0.042024232,77.64092027,12.88261441,4.31
152179066912,-0.1454834,-0.23862457,9.881266,0.002069092,-0.073451236,-0.055584718,77.64090361,12.88265445,4.89
152179066933,-0.19824524,-0.0876358,10.078913,3.6010743E-4,-0.09055481,-7.2631834E-4,77.64090361,12.88265445,4.89
152179066954,-0.45260772,-0.12795563,9.961905,0.0070755007,-0.07003479,0.06914063,77.64090361,12.88265445,4.89
152179066975,-0.4502136,-0.49549103,10.129759,0.015385437,0.008268738,0.12655792,77.64090361,12.88265445,4.89
152179066997,-0.43405914,-0.5431091,10.291037,0.008543396,0.10441132,0.12423859,77.64090361,12.88265445,4.89
152179067018,0.54974973,-0.7420746,9.754923,-0.035072327,0.12139435,-4.8675537E-4,77.64088477,12.88270488,5.5
152179067039,0.62129515,-0.74315035,9.383438,-0.0073379516,-0.0076080323,-0.15759735,77.64088477,12.88270488,5.5
152179067060,-0.23150787,-0.6372665,9.160788,-0.0036727905,-0.07993011,-0.06829224,77.64088477,12.88270488,5.5
152179067082,-0.6726227,-0.48113862,10.430656,0.014894104,-0.066122435,0.011001587,77.64088477,12.88270488,5.5
152179067103,-0.18664245,-0.68667907,9.953052,-0.0034286499,-0.04132385,0.024682617,77.64088477,12.88270488,5.5
152179067124,0.14344788,-0.83658904,8.986467,0.0039016723,0.009124756,0.06865082,77.64086158,12.88274467,5.57
152179067145,-0.6623322,-0.66095734,10.633331,-0.030056763,0.070812985,0.04959259,77.64086158,12.88274467,5.57
152179067167,0.5041641,-0.43411714,9.667827,0.035176087,0.061897278,-0.020399475,77.64086158,12.88274467,5.57
152179067188,-0.007658386,-0.64420474,10.127485,-0.008802796,0.015353394,-0.0974884,77.64086158,12.88274467,5.57
152179067209,-0.26859587,-0.34127504,9.670458,-0.027616883,-0.028860474,-0.06987457,77.64086158,12.88274467,5.57
152179067230,-0.094517514,-0.8105087,9.580488,0.026132202,-0.0335022,-0.04886322,77.64082568,12.88278517,5.71
152179067252,-0.6697525,-0.1167099,10.096021,-0.02407379,-0.047186278,-0.025775146,77.64082568,12.88278517,5.71
152179067273,-0.16977234,-0.008312988,9.723219,0.017826844,-0.013592529,0.018815612,77.64082568,12.88278517,5.71
152179067294,-0.06772003,-0.310289,9.723818,0.020272827,0.008267212,-0.007818604,77.64082568,12.88278517,5.71
152179067315,-0.099423215,-0.39750975,9.771555,-0.006730652,-0.026663208,-0.02992859,77.64079945,12.88284024,5.83
152179067337,-0.3036499,-0.42777556,9.226709,0.0042633056,0.015110779,0.024186706,77.64079945,12.88284024,5.83
152179067358,-0.06748047,-0.16803436,9.607286,-0.013815308,0.08132172,0.021499634,77.64079945,12.88284024,5.83
152179067379,-0.024647523,-0.14362793,9.62834,-0.011737061,0.09121857,-0.046055604,77.64079945,12.88284024,5.83
152179067400,0.027874757,-0.15834503,9.894666,0.01159668,0.036485292,-0.114227295,77.64079945,12.88284024,5.83
152179067422,-0.34193572,-0.047557067,9.61339,0.010984803,-0.0073623657,-0.10066376,77.64077007,12.88289056,6.28
152179067443,-0.28175965,-0.10007934,10.329082,0.025032043,-0.010539246,-0.076351926,77.64077007,12.88289056,6.28
152179067464,-0.065086365,-0.15056762,9.822641,-0.009538269,-0.012738037,-0.08453979,77.64077007,12.88289056,6.28
152179067485,-0.22540589,-0.11611023,9.601903,3.5858154E-4,-0.021292115,-0.0758667,77.64077007,12.88289056,6.28
152179067507,-0.28330994,0.045281984,9.893709,-0.006480408,-0.025074769,-0.0770874,77.64077007,12.88289056,6.28
152179067528,-0.31429902,-0.19770508,9.495184,7.217407E-4,-0.029470826,-0.06572418,77.64074178,12.88294475,6.75
152179067549,0.09379578,-0.13010864,10.221884,0.018927002,-0.054026794,-0.08098908,77.64074178,12.88294475,6.75
152179067571,-0.39182433,-0.40217286,9.624873,-0.035432436,-0.058059692,-0.03994446,77.64074178,12.88294475,6.75
152179067592,-0.3233902,-0.26542512,9.7306385,0.017947387,5.79834E-4,-0.0037841797,77.64074178,12.88294475,6.75
152179067613,-0.13603362,-0.43986207,10.170797,0.01244812,0.01876831,-0.030903626,77.64072273,12.88301079,7.24
152179067634,-0.27840728,-0.36173552,9.92027,-0.0022094727,0.011688232,-0.043244936,77.64072273,12.88301079,7.24
152179067656,-0.10935211,-0.85693204,10.171156,0.010984803,0.012051391,-0.046664428,77.64072273,12.88301079,7.24
152179067677,-0.26799926,-1.0018127,9.41335,-0.011610413,8.239746E-4,-0.043244936,77.64072273,12.88301079,7.24
152179067698,-0.20602417,-0.8417374,9.46575,-0.014906311,0.02928009,-0.03237152,77.64072273,12.88301079,7.24
152179067719,-0.12550506,-0.90406644,10.306468,-0.034820557,0.036242675,-0.04532013,77.64069968,12.88307585,7.73
152179067741,-0.10492859,-1.1679977,9.105272,0.009518432,0.052732848,-0.069755554,77.64069968,12.88307585,7.73
152179067762,0.23162384,-1.1365325,9.761269,0.02173767,0.0356308,-0.10848389,77.64069968,12.88307585,7.73
152179067783,-0.18065949,-0.73429567,9.804695,-0.021385193,-0.046940614,-0.14550324,77.64069968,12.88307585,7.73
152179067804,-0.32410735,-0.75630796,10.478274,0.009155273,-0.08310242,-0.08514862,77.64069968,12.88307585,7.73
152179067826,-0.3754364,-0.88384855,9.89622,0.054600526,-0.08469391,-0.064379886,77.64067731,12.88313933,7.69
152179067847,-0.5275009,-0.76026154,9.847649,-0.10274353,-0.027886963,0.0119750975,77.64067731,12.88313933,7.69
152179067868,-0.066999815,-1.2559311,9.368004,0.07439117,0.102334596,-0.0020751953,77.64067731,12.88313933,7.69
152179067889,0.18986817,-0.98554385,9.716998,-0.015522766,0.055181883,-0.12717743,77.64067731,12.88313933,7.69
152179067911,-0.020579528,-0.19746704,9.63983,0.01355133,-0.07394104,-0.14293213,77.6406635,12.88321624,7.93
152179067932,-0.35844573,-1.2184875,9.645929,0.050813295,-0.10570526,-0.07464142,77.6406635,12.88321624,7.93
152179067953,-0.36586303,-0.72628325,9.134466,-0.023219299,-0.114256285,-0.034324646,77.6406635,12.88321624,7.93
152179067974,-0.08805542,-0.48424834,11.32007,0.041160583,-0.12097778,-0.035546876,77.6406635,12.88321624,7.93
152179067996,-0.51577455,-0.68165433,11.066312,-0.017720032,-0.13135986,0.01209259,77.6406635,12.88321624,7.93
152179068017,-0.46468657,-0.83216554,9.229822,0.030899048,-0.018844604,0.1033432,77.64065304,12.88328744,7.88
152179068038,-0.064726256,-0.651384,9.0494,-0.028837586,0.053466797,0.07023773,77.64065304,12.88328744,7.88
152179068059,-0.016395569,-1.0284958,9.874087,0.05887451,0.05896454,2.4871825E-4,77.64065304,12.88328744,7.88
152179068081,0.2108078,-0.7863388,10.410316,-0.054733276,0.01926117,-0.016004944,77.64065304,12.88328744,7.88
152179068102,-0.020100404,-0.99846345,9.213307,0.011595154,0.009484863,-0.0015853882,77.64065304,12.88328744,7.88
152179068123,-0.064726256,-0.6835693,9.796916,0.016848754,0.0066741942,-0.01599884,77.64063997,12.88336423,7.77
152179068144,-0.0033538819,-0.63655245,10.6067705,-0.006967163,-0.030813599,-0.030418396,77.64063997,12.88336423,7.77
152179068166,-0.27912444,-0.87954104,9.638992,-0.017358398,-0.040345766,4.577637E-6,77.64063997,12.88336423,7.77
152179068187,-0.44386902,-0.8952179,10.078674,9.7045896E-4,0.029521178,0.043977357,77.64063997,12.88336423,7.77
152179068208,-0.055393983,-1.2541382,9.674527,0.029556274,0.071302794,0.005622864,77.64063997,12.88336423,7.77
152179068229,0.060293578,-1.3169495,9.831258,-0.042153932,0.039053343,-0.04825287,77.64062917,12.8834292,7.69
152179068251,-0.022853088,-1.1745758,9.638273,0.037864685,0.0122970585,-0.05973816,77.64062917,12.8834292,7.69
152179068272,0.16295013,-1.394957,9.695227,-1.3275146E-4,-0.04083862,-0.07854919,77.64062917,12.8834292,7.69
152179068293,-0.3814209,-1.4026108,10.594566,-0.0050186156,-0.08615875,-0.060957335,77.64062917,12.8834292,7.69
152179068314,0.33631286,-2.245845,8.698613,-0.0036788941,-0.07736359,-0.0010955811,77.64061641,12.88349977,7.34
152179068336,-0.6452255,-0.59886324,10.035124,-0.002330017,-0.05744629,0.011244202,77.64061641,12.88349977,7.34
152179068357,-0.7098297,-1.4815781,11.041426,0.0059783934,-0.036924742,0.027488708,77.64061641,12.88349977,7.34
152179068378,-0.41970214,-0.4811371,10.4231205,-0.0025741577,-0.03045044,0.017597962,77.64061641,12.88349977,7.34
152179068399,0.06340637,-1.1740983,9.551893,0.015748596,-0.038633727,0.011361694,77.64061641,12.88349977,7.34
152179068421,-0.13411713,-1.4480759,8.848764,0.009884643,-0.059161376,0.022605896,77.64061003,12.88355395,6.73
152179068442,-0.25184327,-1.4532166,10.091593,0.006340027,-0.039855957,0.062417604,77.64061003,12.88355395,6.73
152179068463,-0.10026245,-1.4150543,8.82603,-0.0068481443,0.011930848,0.09919281,77.64061003,12.88355395,6.73
152179068485,0.20709991,-1.5768096,10.353371,-0.017843628,0.05981903,0.06559906,77.64061003,12.88355395,6.73
152179068506,0.017707825,-1.4454453,10.409599,-0.010762024,0.032572936,-0.008549499,77.64061003,12.88355395,6.73
152179068527,0.2951538,-1.5445068,9.930799,0.15343933,-0.057203673,-0.07403259,77.64060161,12.88360517,6.05
152179068548,-0.26033783,-2.3985062,10.199392,-0.35636598,-0.11487122,0.019430542,77.64060161,12.88360517,6.05
152179068569,-0.2853485,-1.4035676,8.388263,0.25483856,-0.031314086,0.14292756,77.64060161,12.88360517,6.05
152179068591,-0.16427001,-1.6775482,11.828903,0.011846924,-0.04498596,0.10077973,77.64060161,12.88360517,6.05
152179068612,-0.7916641,-0.8618332,8.931433,-0.030422974,0.024765015,0.20865937,77.64059207,12.88365067,5.31
152179068633,0.28833467,-1.2177689,10.64386,0.045069885,0.2095993,0.19803162,77.64059207,12.88365067,5.31
152179068654,0.5057205,-0.9344559,9.571396,-0.04447632,0.10685577,-0.09443207,77.64059207,12.88365067,5.31
152179068676,-0.036849976,-1.4161332,10.340329,0.029190063,0.027078247,-0.088812254,77.64059207,12.88365067,5.31
152179068697,-0.48167878,-1.8789017,9.887129,0.0061004637,0.00423584,-0.054606628,77.64059207,12.88365067,5.31
152179068718,-0.2659622,-2.237947,9.596159,-0.01002655,0.08119812,0.04262848,77.64057349,12.88369302,4.79
152179068739,0.59928286,-2.5506883,9.663638,0.022467041,0.095127866,-0.0929657,77.64057349,12.88369302,4.79
152179068761,0.1866394,-2.1607788,9.813547,0.030288696,-0.015307617,-0.2638855,77.64057349,12.88369302,4.79
152179068782,-0.28881684,-2.0621948,12.863561,0.02052002,-0.07211151,-0.20804901,77.64057349,12.88369302,4.79
152179068803,-0.67406005,-1.2659805,6.839029,0.4995529,-0.02312622,-0.09577942,77.64057349,12.88369302,4.79
152179068824,-0.22301331,-2.69019,7.858255,-0.38153687,0.007537842,-0.11043854,77.64056901,12.88372353,3.69
152179068846,-0.024528503,-1.1072174,12.930679,-0.71054536,-0.01665039,-0.08624725,77.64056901,12.88372353,3.69
152179068867,0.06316986,0.61310273,9.4383545,0.20926972,-0.010658264,-0.17531128,77.64056901,12.88372353,3.69
152179068888,-0.3927826,0.03045044,10.317238,0.6510498,-0.06649323,-0.19657287,77.64056901,12.88372353,3.69
152179068910,-0.5359909,0.13824615,10.685614,-0.16638947,-0.019578552,-0.049723815,77.64056666,12.88374789,3.17
152179068931,-0.10217438,0.39308318,8.510776,0.082948305,0.04699097,-0.051797487,77.64056666,12.88374789,3.17
152179068952,0.5301285,-0.08057861,8.951056,-0.022358704,-0.011520386,-0.14061126,77.64056666,12.88374789,3.17
152179068973,-0.84837645,0.44249573,9.195844,-0.007331848,-0.13478088,-0.22796936,77.64056666,12.88374789,3.17
152179068995,-1.2160339,-0.19998017,12.036603,0.02161255,-0.1410141,-0.042636108,77.64056666,12.88374789,3.17
152179069016,-0.7810181,-0.3830307,9.39265,-0.034947205,-0.06197052,0.15050507,77.64056359,12.88377598,3.34
152179069037,-0.4949585,-0.2532196,10.014188,0.010623169,0.057743836,0.18079987,77.64056359,12.88377598,3.34
152179069058,0.006338501,-0.64504397,10.241506,0.014038086,0.07618866,0.063885495,77.64056359,12.88377598,3.34
152179069080,0.18472442,-0.69062805,9.601305,-0.011123657,0.06263123,-0.056437682,77.64056359,12.88377598,3.34
152179069101,0.2557953,-0.82510376,9.638514,-0.014183044,-0.018479919,-0.1292511,77.64056359,12.88377598,3.34
152179069122,-0.24179535,-0.6681366,9.976979,0.019784546,-0.07797241,-0.13658142,77.64056613,12.88380292,3.7
152179069143,-0.6496521,-0.8619553,9.389542,-1.296997E-4,-0.07381897,-8.514404E-4,77.64056613,12.88380292,3.7
152179069165,-0.42449036,-0.81146395,10.078792,-0.0015945435,-0.035949707,0.068525694,77.64056613,12.88380292,3.7
152179069186,-0.2754135,-0.84927064,9.973269,0.0030456544,-0.013349915,0.06315155,77.64056613,12.88380292,3.7
152179069207,-0.16929321,-0.86231536,9.986071,0.023934936,0.0032623291,0.056433104,77.64056613,12.88380292,3.7
152179069229,-0.025485229,-1.0122238,9.84358,0.0054870606,0.031115722,0.04874115,77.64056257,12.88383749,3.55
152179069250,0.066159055,-0.7878952,10.085257,-0.03177185,0.050775148,0.010264588,77.64056257,12.88383749,3.55
152179069271,0.30065614,-0.8045273,9.160069,-0.016494751,0.023170471,-0.049110413,77.64056257,12.88383749,3.55
152179069292,-0.0668808,-0.91950226,10.502681,-0.0017181396,-0.0067565916,-0.12607726,77.64056257,12.88383749,3.55
152179069314,-0.36634368,-1.0445282,9.476759,-0.038241576,-0.010905457,-0.056318663,77.64055611,12.88385935,3.31
152179069335,-0.10647736,-1.3406388,10.660728,-4.974365E-4,0.031236267,-0.012214661,77.64055611,12.88385935,3.31
152179069356,0.003227234,-1.2364318,9.731836,0.024916077,0.01852417,-0.07207642,77.64055611,12.88385935,3.31
152179069377,-0.1490738,-1.5217743,9.479988,-0.009657288,0.03892975,-0.081848145,77.64055611,12.88385935,3.31
152179069398,0.14344788,-1.2644272,9.721785,-0.04874878,0.053712465,-0.08551483,77.64055611,12.88385935,3.31
152179069420,0.14655915,-0.98948973,9.193331,-0.004159546,0.041493226,-0.1839859,77.64055999,12.88388464,2.95
152179069441,-1.158487,-2.4933808,12.437635,-0.2089096,0.04601593,-0.15063019,77.64055999,12.88388464,2.95
152179069462,-0.038168333,-1.540561,6.5667267,0.062429808,0.016217042,-0.27329406,77.64055999,12.88388464,2.95
152179069483,0.22169495,-1.066301,8.396639,0.57945406,-0.11437988,-0.6241776,77.64055999,12.88388464,2.95
152179069505,-0.43262482,0.86721957,10.270816,-0.38862458,-0.16142273,-0.22638091,77.64055999,12.88388464,2.95
152179069526,-1.0776093,-0.63009036,6.2542267,0.10139618,-0.02715454,-0.026875306,77.64056565,12.88390536,2.61
152179069547,-0.60741884,-0.53999937,12.62942,-0.014053345,0.03954315,0.10908966,77.64056565,12.88390536,2.61
152179069568,-0.07214661,-0.6747147,8.013789,0.007322693,0.032214355,0.09137573,77.64056565,12.88390536,2.61
152179069590,0.5109879,-1.2914658,11.187747,0.13535614,-0.094833374,-0.21575317,77.64056565,12.88390536,2.61
152179069611,-1.6301132,0.08189545,9.123102,0.04922638,-0.1171875,-0.084423825,77.64057805,12.88392572,2.3
152179069632,-0.7476395,-0.5638092,10.455782,0.12570648,0.068618774,0.32997742,77.64057805,12.88392572,2.3
152179069654,0.71700895,-0.4363907,11.175664,-0.24372558,0.07020416,0.0652359,77.64057805,12.88392572,2.3
152179069675,-0.2963516,0.38267213,8.842661,0.057659913,-0.024586488,-0.15943298,77.64057805,12.88392572,2.3
152179069696,-0.6218964,-0.7270004,10.102961,0.049836732,0.028549194,-0.10127564,77.64057805,12.88392572,2.3
152179069717,0.007774353,-0.928476,7.161345,-0.24824676,0.06959228,-0.05937195,77.64058471,12.88394477,2.16
152179069739,0.72538453,-2.0204391,17.01439,-0.050950624,0.036856078,-0.17922059,77.64058471,12.88394477,2.16
152179069760,-0.72861636,-0.5791229,6.9441957,0.20976105,-0.047192384,-0.33792266,77.64058471,12.88394477,2.16
152179069781,-0.3606018,1.1841522,9.128842,0.4043808,0.013157654,-0.10444794,77.64058471,12.88394477,2.16
152179069802,-0.7915497,-1.3238907,12.805896,-0.4752411,0.084143065,-0.12754822,77.64058471,12.88394477,2.16
152179069824,-0.5191223,-0.3010788,7.5532866,0.19033508,0.11357727,-0.1965744,77.64059306,12.88396261,2.15
152179069845,0.69451296,-1.0119858,13.145075,0.034326173,0.10612335,-0.37078857,77.64059306,12.88396261,2.15
152179069866,0.4540375,-1.1407181,8.313368,0.070365906,-0.19098052,-0.8036438,77.64059306,12.88396261,2.15
152179069887,-2.2429123,-0.43878174,9.797396,0.15209655,-0.16044159,-0.40035248,77.64059306,12.88396261,2.15
152179069909,-0.7124618,-1.1378448,9.121187,-0.08490143,0.017553711,0.009283448,77.64059306,12.88396261,2.15
152179069930,0.25842285,-0.41605225,9.266192,0.0031692504,0.016938781,-0.15955201,77.64060449,12.88397407,1.45
152179069951,0.27134553,-1.1248062,10.026749,0.036642455,-0.08530579,-0.41025084,77.64060449,12.88397407,1.45
152179069972,-0.78604126,-1.8410995,9.984276,-0.46474153,-0.06343994,-0.24495392,77.64060449,12.88397407,1.45
152179069994,-1.0049851,-1.1171494,11.524417,0.49930876,0.0016708374,-0.19339904,77.64060449,12.88397407,1.45
152179070015,-0.29766846,-0.31698912,8.004217,0.0928421,3.3111573E-4,-0.120213315,77.64061754,12.88398079,1.72
152179070036,-0.1774292,2.6996398,10.41271,0.11287689,-0.060502626,-0.20744781,77.64061754,12.88398079,1.72
152179070057,0.34803313,-5.540761,12.682901,-0.09944153,0.05994873,-0.15197906,77.64061754,12.88398079,1.72
152179070079,0.11222229,3.0147796,6.829219,-0.14477387,-0.05354309,-0.19485779,77.64061754,12.88398079,1.72
152179070100,-0.3416992,0.7875382,9.955805,0.30041504,-0.0650238,-0.26230162,77.64061754,12.88398079,1.72
152179070121,-1.3911896,1.1025543,10.485334,-0.1931488,-0.06478119,-0.068655394,77.64062998,12.88398626,1.42
152179070142,-0.7182053,0.7351364,9.248962,0.13584442,-0.0071273805,0.07976685,77.64062998,12.88398626,1.42
152179070164,-0.40833434,0.60137635,9.925772,2.3956299E-4,0.03392334,0.04360504,77.64062998,12.88398626,1.42
152179070185,-0.30041963,0.68572235,9.899328,-0.037870787,0.0036239624,-0.029071044,77.64062998,12.88398626,1.42
152179070206,-0.44482422,0.6339218,9.528803,8.43811E-4,-0.0028457642,-0.011479187,77.64062998,12.88398626,1.42
152179070227,-0.7734817,0.6139374,9.998991,-0.023461914,-0.0056533813,0.01282959,77.64064727,12.88399266,2.49
152179070249,-0.08745728,-0.23371582,9.777896,-0.017848205,0.019389343,0.0015914917,77.64064727,12.88399266,2.49
152179070270,-0.6933228,0.38626403,8.820051,-0.043984987,0.028909301,-0.041046143,77.64064727,12.88399266,2.49
152179070291,-0.69344175,-0.0577301,8.786069,0.0021896362,0.014129639,-0.0817276,77.64064727,12.88399266,2.49
152179070312,-0.40295106,-0.9352951,8.263478,0.010494995,0.029885864,-0.088934325,77.6406753,12.88400167,3.5
152179070334,0.016630555,0.1254425,10.832052,0.002923584,0.045280457,-0.11153717,77.6406753,12.88400167,3.5
152179070355,0.26560363,-0.7823944,9.268941,0.03139038,0.039172363,-0.19326934,77.6406753,12.88400167,3.5
152179070376,0.09618988,0.10295105,11.245175,0.032733154,-0.075898744,-0.2870987,77.6406753,12.88400167,3.5
152179070397,-0.52271116,-0.6990021,8.73295,0.034077454,-0.15872803,-0.23871765,77.6406753,12.88400167,3.5
152179070419,-0.23282471,0.18059845,11.148746,0.013183594,-0.18072204,-0.07977295,77.64070783,12.88400855,3.6
152179070440,-0.5923462,-0.41366118,9.424715,0.026501466,-0.19916534,-0.0053726197,77.64070783,12.88400855,3.6
152179070461,-0.6637756,-0.43065032,10.043379,0.013308716,-0.12794037,0.18776397,77.64070783,12.88400855,3.6
152179070482,-0.6926025,-0.18490753,10.549463,-0.0026947022,0.0017959594,0.31922454,77.64070783,12.88400855,3.6
152179070504,-0.30221558,-0.60233307,9.7400875,0.041526794,0.06275024,0.24982604,77.64070783,12.88400855,3.6
152179070525,-0.09379883,-0.7721039,9.808882,-0.022732545,0.09549408,0.19546509,77.64074237,12.88401481,3.7
152179070546,-0.06460724,-0.6535385,10.332074,-0.08221893,0.14631653,0.14610596,77.64074237,12.88401481,3.7
152179070567,0.4813141,-0.31830597,9.611356,0.03273468,0.13031006,-0.04361267,77.64074237,12.88401481,3.7
152179070589,0.44255066,-0.3757309,9.311533,0.021003723,0.036973573,-0.20402679,77.64074237,12.88401481,3.7
152179070610,0.07309876,-0.52719724,9.945516,0.0177063,-0.07394104,-0.23383942,77.64074237,12.88401481,3.7
152179070631,-0.93918306,-0.636792,10.303122,0.009031678,-0.09935303,-0.08062439,77.64077604,12.88402412,3.63
152179070653,-0.41718903,-0.70976865,9.447088,-0.007463074,-0.008462524,0.11433868,77.64077604,12.88402412,3.63
152179070674,-0.13543549,-0.3942749,9.404615,-1.3275146E-4,0.014738465,0.026385497,77.64077604,12.88402412,3.63
152179070695,-0.041635133,0.54311067,13.362103,0.3588089,0.041247558,-0.025161743,77.64077604,12.88402412,3.63
152179070716,-0.54209745,-0.70821536,5.1237335,0.12228851,-0.007369995,-0.058270264,77.64080719,12.88403287,3.37
152179070737,0.27684784,-3.0643067,14.204142,-1.1478027,0.039419554,0.015272522,77.64080719,12.88403287,3.37
152179070759,-0.7204803,1.5148376,5.7717104,0.2392044,0.023901368,-0.107507326,77.64080719,12.88403287,3.37
152179070780,-0.8846283,-0.24508515,11.35345,0.6043793,0.04345398,-0.06022339,77.64080719,12.88403287,3.37
152179070801,0.30245057,-0.17162475,8.785233,-0.23004456,-0.06172943,-0.04055786,77.64080719,12.88403287,3.37
152179070822,-1.2361343,0.14207153,9.047847,0.1749405,-0.075653076,-0.14293213,77.64083744,12.88404064,3.4
152179070844,0.024884034,0.08835602,11.176381,-0.052778624,-0.0790741,-0.015516663,77.64083744,12.88404064,3.4
152179070865,-0.6290741,0.7179047,9.503797,0.003781128,-0.03680267,0.038471986,77.64083744,12.88404064,3.4
152179070886,-0.5559753,0.3770508,10.405176,0.038478088,0.03392334,0.030413818,77.64083744,12.88404064,3.4
152179070908,0.038282774,-0.21912536,8.477758,-0.06047516,0.004234314,0.0065994263,77.64083744,12.88404064,3.4
152179070929,0.15804748,0.008674622,9.235682,0.026254272,-0.001992798,-0.030661011,77.64087118,12.88404796,3.87
152179070950,-0.20099792,-0.06083832,9.785192,-0.005747986,-0.027761841,-0.04006958,77.64087118,12.88404796,3.87
152179070971,-0.35066834,0.08201294,9.941325,0.011230469,-0.02653656,-0.018687438,77.64087118,12.88404796,3.87
152179070993,-0.22983246,-0.013102722,9.934387,0.017581176,-0.028492738,-0.030415345,77.64087118,12.88404796,3.87
152179071014,-0.22480774,-0.23240204,9.717836,-0.01539917,-0.01725464,0.003909302,77.64090904,12.88405452,4.34
152179071035,0.040556334,-0.06514587,10.023878,-0.010025024,-0.0413208,-0.023207093,77.64090904,12.88405452,4.34
152179071056,-0.29922026,-0.37178499,9.794886,0.003656006,-0.089335635,-0.016979981,77.64090904,12.88405452,4.34
152179071078,-0.45380098,-0.18299103,9.378296,0.015628051,-0.044496156,0.09943543,77.64090904,12.88405452,4.34
152179071099,-0.36299285,0.1084549,9.450557,-0.007951355,0.05419769,0.11531677,77.64090904,12.88405452,4.34
152179071120,0.41647035,0.03607025,9.881864,-0.012104797,0.09353943,0.04141388,77.64095111,12.88406227,4.72
152179071141,-0.07597351,0.2922241,10.005575,0.004875183,0.041741945,-0.07830505,77.64095111,12.88406227,4.72
152179071163,2.3498535E-4,0.16289063,10.281229,0.0031661987,-0.027757263,-0.10127564,77.64095111,12.88406227,4.72
152179071184,-0.047499083,-0.21732788,9.540051,6.011963E-4,-0.084690854,-0.07501068,77.64095111,12.88406227,4.72
152179071205,-0.028955078,-0.3050247,10.035126,-0.016989136,-0.14638825,-0.050819397,77.64095111,12.88406227,4.72
152179071226,-0.65707093,-0.8058426,9.942044,-0.028468322,-0.17411956,0.044708252,77.64099632,12.88407054,4.89
152179071248,-0.22755738,-0.7676773,9.707547,0.0026794435,-0.1338089,0.15612487,77.64099632,12.88407054,4.89
152179071269,-0.44470826,-0.897966,8.65363,-0.0037979125,-0.04804535,0.22868958,77.64099632,12.88407054,4.89
152179071290,-0.22492523,-1.0517044,10.365094,0.019415284,0.08535461,0.286969,77.64099632,12.88407054,4.89
152179071311,0.86296844,-0.88157654,9.682544,-0.008929444,0.10392456,0.12363128,77.64099632,12.88407054,4.89
152179071333,0.21810456,-0.86051786,9.388704,-0.021269226,-0.0016235352,-0.02333374,77.64103947,12.88408068,4.7
152179071354,-0.030628968,-0.9608978,9.427706,-0.011004639,-0.090559386,0.008801269,77.64103947,12.88408068,4.7
152179071375,-0.5213974,-1.0177276,9.95341,0.035298157,-0.04487152,0.14830628,77.64103947,12.88408068,4.7
152179071396,-0.17898408,-1.3700699,9.323619,0.0532547,0.03415985,0.22392884,77.64103947,12.88408068,4.7
152179071418,-0.0820755,-1.0796998,10.065512,0.051789857,0.05554657,0.13229981,77.64108401,12.88409548,5.16
152179071439,0.08578034,-1.2019761,10.1561985,-0.087594606,0.07020416,0.11434021,77.64108401,12.88409548,5.16
152179071460,0.33858338,-0.6828491,8.445452,-0.02578125,0.067028806,0.03591461,77.64108401,12.88409548,5.16
152179071481,0.12729797,-1.8259033,12.434766,0.105551146,0.1036789,0.012582397,77.64108401,12.88409548,5.16
152179071503,0.6378037,-1.1962296,9.127406,0.0914978,0.043452453,-0.03518219,77.64108401,12.88409548,5.16
152179071524,0.04115448,-0.26028138,9.7769375,-0.10702057,0.024887085,-0.1272995,77.64112729,12.88411347,5.09
152179071545,-0.24658203,-0.45314026,10.126172,0.007931518,-0.024098206,-0.08661499,77.64112729,12.88411347,5.09
152179071566,0.19262084,-0.5026733,10.277158,0.021492004,-0.02836914,-0.08074951,77.64112729,12.88411347,5.09
152179071588,-0.3214752,-0.24077758,9.127405,-0.0152771,-0.017988587,-0.0434906,77.64112729,12.88411347,5.09
152179071609,0.04163208,-0.15284118,11.813353,-0.06646118,-0.012373352,-0.047395326,77.64112729,12.88411347,5.09
152179071630,0.21439667,-0.39487457,7.2641172,0.089178465,-0.050120544,-0.085150145,77.64115523,12.88414399,3.6
152179071651,-0.56698304,0.064186096,12.39636,-0.0077026365,-0.060990907,-0.06682281,77.64115523,12.88414399,3.6
152179071673,0.17718658,-1.101358,7.14268,0.0036605834,-0.088725284,-0.0025650025,77.64115523,12.88414399,3.6
152179071694,0.07932129,0.34881592,9.822164,0.010375977,-0.093977354,-0.0031723022,77.64115523,12.88414399,3.6
152179071716,-0.63828737,0.32404938,12.215581,-0.0036743165,-0.095933534,0.08086548,77.64118762,12.88415508,4.08
152179071737,-1.1368301,-0.2986847,12.760191,0.036761474,-0.015917968,0.19216613,77.64118762,12.88415508,4.08
152179071758,-1.2202225,-0.0017349243,12.744638,3.5705566E-4,0.060917664,0.18250886,77.64118762,12.88415508,4.08
152179071779,-0.8315094,-0.032244872,13.061328,-0.010513306,0.13544159,0.1436615,77.64118762,12.88415508,4.08
152179071801,-0.4923233,0.22498627,12.691637,-0.007092285,0.1001358,-0.040678404,77.64118762,12.88415508,4.08
152179071821,-0.19238587,-0.017643739,13.075562,0.0051223757,0.061161805,-0.07696533,77.64121663,12.88416358,3.5
152179071843,-0.3649063,0.052462768,9.586351,0.05912018,0.015719604,-0.11129303,77.64121663,12.88416358,3.5
152179071864,0.75612944,-1.1053054,8.606012,-0.067805484,-0.016157532,-0.07965698,77.64121663,12.88416358,3.5
152179071885,0.649649,-1.03974,7.8398285,-0.12729797,-0.05305023,-0.113249205,77.64121663,12.88416358,3.5
152179071907,-0.5432938,0.21469574,9.147146,0.15172729,-0.081027225,-0.071711734,77.64121663,12.88416358,3.5
152179071928,0.24801636,-0.39056855,10.424197,-0.013200378,-0.13881378,-0.07818451,77.6412608,12.88417439,4.05
152179071949,-0.63051146,-0.24364929,8.363856,-0.014782715,-0.13954774,0.05203552,77.6412608,12.88417439,4.05
152179071970,-0.47976226,-0.033795167,10.7160015,0.022470092,-0.018484497,0.18007202,77.6412608,12.88417439,4.05
152179071992,0.5966507,-0.49860382,9.211632,-0.013688659,-0.013716126,0.06022339,77.6412608,12.88417439,4.05
152179072013,-0.029429626,-0.41042632,9.4283085,-0.018945312,-0.028370667,0.07866974,77.64129467,12.88418932,4.04
152179072034,-0.6662842,-0.12867126,9.643181,-0.013198853,0.031600952,0.14182892,77.64129467,12.88418932,4.04
152179072055,0.008734131,-0.281456,10.077957,0.03224945,0.12774506,0.17176056,77.64129467,12.88418932,4.04
152179072077,-0.23844604,-0.17090759,10.550299,-0.02822113,0.11308746,-0.0017074585,77.64129467,12.88418932,4.04
152179072098,0.7361496,-0.41664886,8.761545,-0.006114197,0.056030273,-0.051185608,77.64129467,12.88418932,4.04
152179072119,-0.57104796,0.3160324,10.679273,-9.841919E-4,0.033309937,-0.0726883,77.64137152,12.88419365,5.13
152179072140,0.737587,-0.5778076,8.988863,5.996704E-4,-0.008096313,-0.1134903,77.64137152,12.88419365,5.13
152179072162,-1.1255859,0.12304993,11.311216,0.008177185,-0.05757141,-0.096876524,77.64137152,12.88419365,5.13
152179072183,0.6516846,-0.9860214,8.474405,0.013063049,-0.07821655,-0.06266785,77.64137152,12.88419365,5.13
152179072204,-0.9349945,-0.15726928,11.057459,0.012818908,-0.08701477,-0.026141357,77.64137152,12.88419365,5.13
152179072225,0.85519254,-0.68931276,9.656819,-0.008312988,-0.108883664,0.034568787,77.64143343,12.88423464,5.36
152179072247,-1.0439911,-0.08189392,10.814468,0.008543396,-0.04877777,0.083552554,77.64143343,12.88423464,5.36
152179072268,0.60478514,-0.86889493,8.720507,-0.014300537,0.036242675,0.14927979,77.64143343,12.88423464,5.36
152179072289,-0.51087034,0.09062805,10.58607,-0.01967163,0.06397553,0.04055481,77.64143343,12.88423464,5.36
152179072310,0.869075,-0.61202085,9.097496,0.0067108152,0.03880615,-0.011233521,77.64143343,12.88423464,5.36
152179072332,-0.63039094,-0.24843445,10.655705,-0.009294128,0.03123169,-0.006225586,77.64147712,12.8842568,5.34
152179072353,0.38536376,-0.54634094,9.023796,-0.001473999,8.239746E-5,-0.037135314,77.64147712,12.8842568,5.34
152179072374,0.20805359,-0.5798416,9.542801,3.616333E-4,-0.01566925,-0.037994385,77.64147712,12.8842568,5.34
152179072395,-0.66341245,-0.19674988,10.442622,0.013796997,-0.03045044,-0.039949037,77.64147712,12.8842568,5.34
152179072417,0.03565216,-0.53210294,9.880547,0.0029205321,-0.030085754,-0.0032928467,77.64152136,12.88427632,5.07
152179072438,0.34253082,-0.5104477,9.410359,-0.00599823,0.016938781,0.046664428,77.64152136,12.88427632,5.07
152179072459,-0.4675583,-0.28731537,10.737538,0.0023086548,0.057618715,0.019059753,77.64152136,12.88427632,5.07
152179072481,-0.30544585,-0.19376068,9.965016,-7.385254E-4,0.046868898,-0.046662904,77.64152136,12.88427632,5.07
152179072502,0.55130464,-0.5863037,9.290838,0.0034118653,0.0103408815,-0.08808136,77.64152136,12.88427632,5.07
152179072523,0.27673036,-0.5907257,9.619372,-0.0013549805,-0.007974243,-0.07904053,77.64156084,12.88429252,5.38
152179072544,-0.52055967,-0.12030029,10.755484,0.009272766,-0.022750854,-0.07659455,77.64156084,12.88429252,5.38
152179072565,-0.055993654,-0.30801696,10.302402,6.072998E-4,-0.07076874,-0.1075058,77.64156084,12.88429252,5.38
152179072587,0.16019592,-0.7515274,9.40031,0.009887695,-0.11266937,-0.057659913,77.64156084,12.88429252,5.38
152179072608,-0.08279419,-0.5656036,9.19883,0.0065856935,-0.10546265,0.014050293,77.64156084,12.88429252,5.38
152179072629,-0.8981476,-0.2520233,10.198675,-0.002330017,-0.05305176,0.092228696,77.64160733,12.88432314,5.9
152179072650,-0.75074923,0.21110687,9.940727,-0.0040390017,0.04296112,0.11935119,77.64160733,12.88432314,5.9
152179072672,0.505484,-0.69302064,9.985954,0.0031677247,0.08193207,0.058148194,77.64160733,12.88432314,5.9
152179072693,0.6768082,-0.803566,9.097975,0.0036575317,0.049801636,-0.040802002,77.64160733,12.88432314,5.9
152179072714,0.24011841,-0.78227234,9.589102,8.468628E-4,0.013517762,-0.052653503,77.64165654,12.88434389,5.4
152179072735,-0.5551361,-0.2955719,10.043378,0.01770935,-0.02873993,-0.06657715,77.64165654,12.88434389,5.4
152179072757,-0.113781735,-0.2992813,9.918953,-0.0033096313,-0.0736969,-0.046418764,77.64165654,12.88434389,5.4
152179072778,0.13662872,-0.81936187,9.572354,-0.019067382,-0.07650757,0.007331848,77.64165654,12.88434389,5.4
152179072799,0.16594239,-0.66622317,9.394327,-0.0042877197,-0.03105774,0.064007565,77.64165654,12.88434389,5.4
152179072820,-0.2537628,-0.49118653,9.946233,0.031877138,-0.014201355,0.043852232,77.64170753,12.88436494,5.62
152179072842,-0.7578079,-0.35802308,10.535466,-0.015771484,0.03184662,0.065351866,77.64170753,12.88436494,5.62
152179072863,0.0831482,-0.013938904,10.023999,-0.009411621,0.052610777,0.018081665,77.64170753,12.88436494,5.62
152179072884,0.36083525,-0.5325821,9.658373,0.0152633665,-0.0032180785,-0.05167236,77.64170753,12.88436494,5.62
152179072906,0.3342743,-0.7374069,9.064,-0.004040527,-0.048287965,-0.014657592,77.64170753,12.88436494,5.62
152179072927,-0.28032225,-0.62817687,9.855783,1.1444092E-4,-0.028862,0.030540466,77.64175149,12.88439224,5.41
152179072948,-0.60179746,-0.41425475,10.258734,0.015873719,0.035751343,0.07109375,77.64175149,12.88439224,5.41
152179072969,-0.1281372,-1.3098907,10.17953,0.011964416,0.066905215,0.023330688,77.64175149,12.88439224,5.41
152179072991,0.19656983,-0.8205582,8.617975,-0.015397644,0.08535461,0.0080657955,77.64175149,12.88439224,5.41
152179073012,0.046180725,-0.71635133,8.181763,-0.070365906,0.11418762,-0.012825012,77.64175149,12.88439224,5.41
152179073033,0.54651946,-1.0033706,10.566211,0.018196106,0.08693848,-0.15075226,77.64179906,12.88441827,5.49
152179073054,0.67764586,-0.45708925,10.5254135,0.04409485,-0.01689453,-0.25509185,77.64179906,12.88441827,5.49
152179073076,0.8667984,-1.1830719,9.034803,0.041038513,-0.29348755,-0.40719908,77.64179906,12.88441827,5.49
152179073097,-1.0680344,-1.072998,9.814745,0.011477661,-0.3709442,-0.09040527,77.64179906,12.88441827,5.49
152179073118,-0.5435318,-0.71264493,10.17379,0.022956848,-0.22812805,0.24103394,77.64184232,12.88443827,5.4
152179073139,-0.7247864,-1.5468979,9.925054,0.049960326,-0.0903122,0.31433716,77.64184232,12.88443827,5.4
152179073161,-0.003829956,-1.0442902,9.350298,0.054232787,0.040274046,0.3589325,77.64184232,12.88443827,5.4
152179073182,0.33104554,-0.7261597,10.437239,0.0026809692,0.094882205,0.22136383,77.64184232,12.88443827,5.4
152179073203,0.082551576,-0.8550156,10.127966,0.010743713,0.12750396,0.20279083,77.64184232,12.88443827,5.4
152179073224,0.32865447,-0.8405396,10.223917,-0.0042831423,0.06776428,0.04800415,77.64188811,12.88446572,4.95
152179073246,0.024765015,-0.986261,9.780289,0.0046325685,0.051757813,0.09577179,77.64188811,12.88446572,4.95
152179073267,-0.044030763,-0.84664,9.872053,-0.0031829835,0.102212526,0.098458864,77.64188811,12.88446572,4.95
152179073288,0.09020843,-0.31986085,10.601148,0.060710143,0.117362976,0.017597962,77.64188811,12.88446572,4.95
152179073309,0.37519532,-1.1352158,10.167564,0.016726684,0.065927126,-0.0698761,77.64188811,12.88446572,4.95
152179073331,-0.14153747,-0.7381241,8.850197,-0.042025756,0.015232849,-0.11275788,77.64191878,12.88449071,4.3
152179073352,-0.48670045,-0.33840483,12.072134,-0.038731385,0.036122132,-0.052775573,77.64191878,12.88449071,4.3
152179073373,0.23521118,-1.0731201,9.536819,0.050328065,0.044674683,-0.066453554,77.64191878,12.88449071,4.3
152179073395,-0.36167756,-1.0866425,10.621005,-0.007582092,0.08242188,-0.09150238,77.64191878,12.88449071,4.3
152179073416,0.21714935,-0.9313461,9.182083,0.025279235,0.07228394,-0.1679779,77.64195148,12.88451624,4.4
152179073437,0.14225312,-0.98984987,10.180847,-0.091998294,0.036123656,-0.26303405,77.64195148,12.88451624,4.4
152179073458,0.63613284,-0.39032593,10.037041,0.116053775,-0.22078857,-0.47720185,77.64195148,12.88451624,4.4
152179073479,-1.5617965,-0.9367264,9.839991,0.13462524,-0.33087158,-0.22393493,77.64195148,12.88451624,4.4
152179073501,-1.1163727,-1.2184875,9.671892,-0.08429565,-0.14076844,0.24762878,77.64195148,12.88451624,4.4
152179073522,0.19776459,-0.87774813,9.71963,0.058020018,0.019264221,0.24347687,77.64198518,12.88453364,4.0
152179073543,-0.13603516,-0.98685914,9.767366,-0.006726074,0.013644409,0.09235229,77.64198518,12.88453364,4.0
152179073565,-0.15900269,-0.91602933,10.118395,-0.058271788,0.10856476,0.173349,77.64198518,12.88453364,4.0
152179073586,1.0472152,-0.9090927,9.991577,0.02124939,0.06690826,-0.085272215,77.64198518,12.88453364,4.0
152179073607,-0.28103638,-0.766359,9.718915,0.01782837,-0.042787172,-0.1550293,77.64198518,12.88453364,4.0
152179073628,-0.2739792,-1.1809158,9.576779,1.1291504E-4,-0.055984497,-0.005857849,77.64201624,12.88454969,3.87
152179073649,-0.46098024,-1.1758941,9.839151,-0.046304323,0.053463746,0.12729034,77.64201624,12.88454969,3.87
152179073671,0.8484955,-0.98710024,10.142921,-0.028588867,0.028303528,-0.035427857,77.64201624,12.88454969,3.87
152179073692,-0.5979675,-1.0442902,9.775861,0.050202943,-0.018598938,-0.09821625,77.64201624,12.88454969,3.87
152179073713,-0.18520507,-0.85597384,9.766886,0.03578644,0.017433167,-0.0072036744,77.6420462,12.88456325,3.32
152179073734,-0.057667542,-2.023311,6.849681,-0.34599304,0.02427063,-0.022967529,77.6420462,12.88456325,3.32
152179073756,-0.22971344,-1.0603195,10.745554,0.0072052004,0.037219238,-0.08087158,77.6420462,12.88456325,3.32
152179073777,-0.65359956,-0.7515274,9.601306,0.469989,0.03942108,-0.10677185,77.6420462,12.88456325,3.32
152179073798,0.5206787,0.07687378,8.196838,0.13634185,-0.022636414,-0.15332489,77.6420462,12.88456325,3.32
152179073819,0.6196213,-1.2540176,10.578176,-0.20707703,0.0058303834,-0.15808411,77.6420719,12.88457048,3.04
152179073841,-0.18161622,0.8203217,8.970558,0.13523713,-0.29776153,-0.3469635,77.6420719,12.88457048,3.04
152179073862,-1.8341004,-0.48927155,10.128444,0.11581421,-0.17851868,0.043000795,77.6420719,12.88457048,3.04
152179073883,-0.9087936,-0.13788453,10.021484,-0.1193573,-0.07223816,0.4260071,77.6420719,12.88457048,3.04
152179073904,-0.44064027,-0.6925446,9.198595,-0.0955307,0.12896577,0.32741243,77.6420719,12.88457048,3.04
152179073926,0.06867065,-0.6987656,10.274648,-0.046916198,0.19628449,0.22796173,77.64209988,12.88458577,3.5
152179073947,0.6781265,-0.32835692,9.239154,0.03993988,0.15596923,-0.015882874,77.64209988,12.88458577,3.5
152179073968,-0.231987,-1.8208755,9.582163,-0.2731735,0.081077576,-0.17250213,77.64209988,12.88458577,3.5
152179073990,0.54269105,-0.6873978,10.964854,0.06351624,-0.059898376,-0.30652466,77.64209988,12.88458577,3.5
152179074011,-0.87589264,-0.34953156,8.615103,0.36052093,-0.15432891,-0.20829925,77.64209988,12.88458577,3.5
152179074032,-0.6563522,-0.21134643,10.325851,-0.09480133,-0.18975982,-8.544922E-4,77.64212559,12.8845923,3.93
152179074053,-0.5182892,-0.38386536,9.231496,0.05545654,-0.052685548,0.1804367,77.64212559,12.8845923,3.93
152179074075,0.03026886,-0.5402374,10.265796,0.03212128,-0.003579712,0.14964905,77.64212559,12.8845923,3.93
152179074096,-0.37292328,-0.21326141,9.615544,-0.02884369,0.0052139284,0.12472534,77.64212559,12.8845923,3.93
152179074117,-0.04534607,-0.50865173,9.58324,0.025280762,0.034895323,0.09943695,77.64215202,12.88460639,3.27
152179074138,0.22109528,-0.39248198,9.904477,-0.00990448,-0.018722534,0.015150452,77.64215202,12.88460639,3.27
152179074160,-0.4012741,-0.4552948,10.00677,0.0042678835,-0.01665039,0.057051085,77.64215202,12.88460639,3.27
152179074181,-0.12861633,-0.5963501,9.637436,-6.1798096E-4,0.0030151368,0.09699402,77.64215202,12.88460639,3.27
152179074202,-0.17922516,-0.78837585,10.194842,-0.008563233,0.05774536,0.10859833,77.64215202,12.88460639,3.27
152179074223,-0.046182252,-0.58474886,10.313889,-0.0029403686,0.07399444,0.05680237,77.64217903,12.88461935,3.16
152179074245,0.15589142,-0.61728823,9.954846,0.008665467,0.08034668,-0.026872253,77.64217903,12.88461935,3.16
152179074266,0.8050644,-0.91208345,9.951975,-0.0026947022,0.006802368,-0.14207916,77.64217903,12.88461935,3.16
152179074287,-0.051208496,-0.92488253,9.971477,0.028089905,-0.094343565,-0.22528228,77.64217903,12.88461935,3.16
152179074308,-0.4722229,-0.50434875,9.64785,0.026622009,-0.12769775,-0.06609192,77.64217903,12.88461935,3.16
152179074330,-0.56721956,-0.5214569,9.88928,-0.011125183,-0.08652649,0.079278566,77.64220525,12.88463417,3.65
152179074351,-0.39446107,-0.70175475,9.903875,0.023202514,-0.03704376,0.12557983,77.64220525,12.88463417,3.65
152179074372,0.0047821044,-0.700679,9.277316,0.015628051,0.0016738891,0.13450012,77.64220525,12.88463417,3.65
152179074394,0.16988984,-0.546579,9.652634,-0.009657288,-0.008953857,0.0710968,77.64220525,12.88463417,3.65
152179074415,-0.08662109,-0.72293395,9.763898,0.003286743,-0.024339294,0.034693908,77.64223394,12.88465022,3.64
152179074436,0.12119599,-0.78921205,10.502443,-0.0053848266,-0.0840805,0.0145431515,77.64223394,12.88465022,3.64
152179074458,-0.3633545,-1.0399796,9.960233,-0.010391235,-0.1072937,0.077445984,77.64223394,12.88465022,3.64
152179074478,-0.108155824,-1.1177475,9.67261,-3.7536622E-4,-0.101184085,0.21439819,77.64223394,12.88465022,3.64
152179074500,-0.36670226,-1.3638504,9.461087,0.0091522215,-0.047186278,0.32337648,77.64223394,12.88465022,3.64
152179074521,-0.25615388,-1.2107086,10.210039,0.028825378,0.03746338,0.42600098,77.64225859,12.88466702,3.34
152179074542,0.17443542,-1.5551544,9.933789,0.026869202,0.17893371,0.4968628,77.64225859,12.88466702,3.34
152179074563,1.4277939,-1.4996399,9.43309,0.026622009,0.16659546,0.22832794,77.64225859,12.88466702,3.34
152179074585,0.77634734,-2.0785859,9.385953,0.015383911,-0.01322937,-0.24483185,77.64225859,12.88466702,3.34
152179074606,-0.15601197,-2.2326827,10.213033,0.046168517,-0.10693054,-0.21526489,77.64225859,12.88466702,3.34
152179074627,-0.8849869,-2.1378067,9.289762,0.10994415,-0.039009094,0.075862125,77.64227445,12.88468394,2.5
152179074649,0.062091064,-2.5034318,10.575066,0.022956848,-0.0040679933,0.1880066,77.64227445,12.88468394,2.5
152179074670,0.66615903,-2.2896316,9.274206,-0.010881042,-0.030940246,0.16137543,77.64227445,12.88468394,2.5
152179074691,0.6375656,-1.695015,10.074008,0.004388428,-0.00186615,0.113241576,77.64227445,12.88468394,2.5
152179074712,0.8203766,-0.33924255,9.541127,0.008906555,0.025979614,0.072071835,77.64228246,12.88469472,1.0
152179074734,0.08410339,-0.20500335,9.960111,0.009638977,0.057008363,-0.009524536,77.64228246,12.88469472,1.0
152179074755,0.025123596,-0.0054443358,10.1130085,0.007563782,0.010227966,-0.0057388307,77.64228246,12.88469472,1.0
152179074776,0.19010925,-0.2243866,9.640907,-0.007217407,-0.03594818,-0.0076904297,77.64228246,12.88469472,1.0
152179074797,0.29096526,-0.054376222,10.093748,-0.0031829835,-0.013345337,-0.005004883,77.64228246,12.88469472,1.0
152179074818,0.06508484,-0.15786591,9.698454,-7.4310304E-4,0.0015518188,-0.0034179688,77.64227983,12.88469573,0.0
152179074840,0.43704835,-0.39020842,9.798834,-2.548218E-4,-0.019694518,-0.0061050416,77.64227983,12.88469573,0.0
152179074861,0.0047851563,0.12616272,10.142921,0.0010955811,3.2806396E-4,-0.005493164,77.64227983,12.88469573,0.0
152179074882,-0.060180664,-0.2365921,9.691037,-7.415771E-4,0.0026474,-0.0041503906,77.64227983,12.88469573,0.0
152179074904,0.32530364,-0.45050964,9.432013,0.005123901,0.0107070925,-0.007695007,77.64227983,12.88469573,0.0
152179074925,0.30950928,-0.38028106,9.668904,-6.195068E-4,0.01926117,-0.007081604,77.64227807,12.88469581,0.0
152179074946,0.07489319,-0.08644104,9.999949,7.217407E-4,-0.0041870116,-0.005126953,77.64227807,12.88469581,0.0
152179074967,-0.17336425,0.15846558,10.297139,0.0023101806,-0.016519165,-0.0063476563,77.64227807,12.88469581,0.0
