timestamp,accx,accy,accz,gyrx,gyry,gyrz,longitude,latitude,speed
152179038830,-0.039123535,-0.66586304,9.781964,-0.0077056885,-0.012490844,-0.023576355,77.63924728,12.87943114,0.0
152179038852,0.057426453,-1.1888123,9.780528,4.7454835E-4,-0.022390747,-0.0052490234,77.63924728,12.87943114,0.0
152179038872,0.09750672,-1.1792434,9.777658,2.4261474E-4,-0.017375182,-0.0053710938,77.63924728,12.87943114,0.0
152179038894,0.107795715,-1.1890519,9.774547,3.6315917E-4,-2.807617E-4,-0.0053710938,77.63924728,12.87943114,0.0
152179038915,0.047857665,-1.1804367,9.776939,0.0010894776,0.027568053,-0.0018310547,77.63924737,12.8794312,0.0
152179038936,-0.07884674,-1.1762527,9.7834,0.0014572144,0.025617981,-0.0017089844,77.63924737,12.8794312,0.0
152179038957,-0.11797027,-1.1768478,9.785673,0.0014572144,0.016574096,-0.0032958984,77.63924737,12.8794312,0.0
152179038979,-0.1483551,-1.1837876,9.790217,-4.9591064E-4,0.01926117,-0.0024414063,77.63924737,12.8794312,0.0
152179039000,-0.24813537,-1.1679977,9.774066,-0.001348877,0.030256653,-0.0019485473,77.63924737,12.8794312,0.0
152179039021,-0.3220749,-1.1908493,9.782442,4.776001E-4,0.028909301,-0.0028076172,77.63924748,12.87943127,0.0
152179039042,-0.37639007,-1.1721833,9.802304,-2.5177002E-4,0.017674256,-0.0031738281,77.63924748,12.87943127,0.0
152179039064,-0.32937318,-1.1910858,9.786989,7.232666E-4,-0.007972717,-0.008673096,77.63924748,12.87943127,0.0
152179039085,-0.25746766,-1.1616577,9.788066,0.0146484375,-0.04401245,-0.06829071,77.63924748,12.87943127,0.0
152179039106,-0.037089538,-1.1065003,9.829103,0.016604614,-0.052072145,-0.08441772,77.63924748,12.87943127,0.0
152179039127,-0.17730865,-1.0427307,10.027708,0.01489563,-0.06808014,-0.11068268,77.63924748,12.87943127,0.0
152179039149,-0.29647523,-0.9361313,9.9485035,0.0064666746,-0.03607025,-0.06584625,77.63924748,12.87943127,0.0
152179039170,-0.009095764,-1.3125229,9.726331,-0.007585144,0.041984558,0.016497802,77.63924748,12.87943127,0.0
152179039191,-0.08315277,-1.0530212,9.48968,0.001701355,0.067150876,-8.4991456E-4,77.63924748,12.87943127,0.0
152179039212,-0.5952164,-1.0217941,9.592812,-0.0061157225,0.056402586,-0.0020721436,77.63924748,12.87943127,0.0
152179039234,-0.54700166,-1.2135757,9.817497,-0.0035491944,0.0070465086,-0.004272461,77.63924757,12.87943134,0.0
152179039255,-0.46026307,-1.1592636,9.822523,-0.001473999,-0.017495727,-0.0064697266,77.63924757,12.87943134,0.0
152179039276,-0.29264528,-0.6695709,10.759909,-1.2817382E-4,-0.029472351,-0.00549469,77.63924757,12.87943134,0.0
152179039298,-0.43788606,-0.59647065,9.965375,0.00939331,-0.028738404,-0.0018295288,77.63924757,12.87943134,0.0
152179039319,-0.12981263,-0.35120696,9.630018,0.0050003054,-0.0041885376,-0.0113571165,77.63924757,12.87943134,0.0
152179039340,-0.27541655,-0.3752533,9.521504,1.0986328E-4,0.009120178,-0.023454284,77.63924757,12.87943134,0.0
152179039361,-0.45415956,-0.008312988,9.763899,0.0026779175,0.0041091917,-0.046173096,77.63924757,12.87943134,0.0
152179039382,-0.34121856,0.43710786,9.821324,-3.768921E-4,0.017304992,-0.0592453,77.63924757,12.87943134,0.0
152179039404,-0.009814453,0.0822525,10.037878,0.009155273,-0.038638305,-0.12607574,77.63924757,12.87943134,0.0
152179039425,-0.3110687,-0.45888367,10.120546,0.014283752,-0.13905792,-0.21929626,77.63924757,12.87943134,0.0
152179039446,-0.85771024,0.21469879,9.518634,0.01966095,-0.0697876,-0.022601318,77.63924757,12.87943134,0.0
152179039467,-0.6630524,0.62937164,9.342882,0.0014587402,-0.015542602,0.21390991,77.63924757,12.87943134,0.0
152179039489,-0.75194395,0.16085815,10.158236,-0.0062393188,0.032820128,0.24910279,77.63924757,12.87943134,0.0
152179039510,0.4595398,-0.11252441,9.232691,-0.0050186156,0.029768372,0.1790924,77.63924757,12.87943134,0.0
152179039531,-0.5566925,0.082014464,9.99899,-0.0128387455,0.0704483,0.08208618,77.63925177,12.87943476,0.75
152179039553,-0.50680083,0.2242691,11.622164,-0.0055038454,0.08864899,0.011602784,77.63925177,12.87943476,0.75
152179039574,0.51086885,-0.027694702,11.040706,0.010986328,0.02047882,-0.19681397,77.63925177,12.87943476,0.75
152179039595,-0.74022216,-0.0887146,9.280548,0.019659424,-0.009808349,-0.19046172,77.63925177,12.87943476,0.75
152179039616,0.029431153,-0.712883,8.951057,-0.016255189,-0.0010177612,-0.04556427,77.63926334,12.87944445,1.67
152179039637,0.27840424,-1.3308274,9.852674,-0.017597962,-0.026905823,-0.10848389,77.63926334,12.87944445,1.67
152179039659,-0.43094787,-0.9116043,10.0807085,0.033712767,-0.07479706,-0.16138458,77.63926334,12.87944445,1.67
152179039680,-0.8709885,-1.0874755,9.50009,0.009642029,-0.010540771,0.04287567,77.63926334,12.87944445,1.67
152179039701,0.17348023,-0.7153946,9.78113,2.3498535E-4,0.06714783,0.0050094603,77.63926334,12.87944445,1.67
152179039722,0.7277771,-1.0149734,10.464755,0.001826477,-0.030699158,-0.2016983,77.63927644,12.87945633,1.66
152179039744,-0.41467744,-0.96161497,9.854347,0.05069275,-0.14492187,-0.2658432,77.63927644,12.87945633,1.66
152179039765,-1.0116898,-0.7571457,10.304197,0.043118287,-0.097399905,0.08880921,77.63927644,12.87945633,1.66
152179039786,-0.19669037,-0.8972473,9.431295,-0.006480408,-0.074308775,0.08245392,77.63927644,12.87945633,1.66
152179039808,-0.546286,-0.7530823,9.539091,0.028213501,0.005458069,0.18385772,77.63927644,12.87945633,1.66
152179039829,0.058383178,-1.050389,9.978055,-0.0041625975,0.05871887,0.1602768,77.63929003,12.879464,1.45
152179039850,0.045939635,-1.0673767,9.775744,-0.022729492,0.0090057375,-0.0032958984,77.63929003,12.879464,1.45
152179039871,-0.42783815,-0.526358,10.128926,-4.974365E-4,0.0087509155,0.021253968,77.63929003,12.879464,1.45
152179039893,0.010406494,-0.4710861,9.850639,0.028945923,0.031845093,0.05619049,77.63929003,12.879464,1.45
152179039914,-0.19968566,-1.1600997,9.442423,0.019049073,0.010342407,-0.036886595,77.63931245,12.87947312,2.59
152179039935,-0.3585678,-1.07061,9.670937,-0.036895752,-0.044499207,-0.04006653,77.63931245,12.87947312,2.59
152179039956,-0.8941986,-0.8263016,9.544835,-0.019918824,-0.004676819,0.04727478,77.63931245,12.87947312,2.59
152179039978,0.15134278,-1.117865,9.913689,0.019049073,0.02671051,0.053993225,77.63931245,12.87947312,2.59
152179039999,0.036849976,-1.0355545,9.793213,-0.021629333,-0.02471466,-0.044099428,77.63931245,12.87947312,2.59
152179040020,-0.45068818,-1.0898712,9.560865,0.008175659,-0.06026001,-0.021134948,77.63933688,12.87948411,2.38
152179040041,-0.21176605,-1.5624511,9.4460125,-0.002697754,-0.025802612,0.091004945,77.63933688,12.87948411,2.38
152179040063,-0.117608644,-1.3173081,9.458334,-0.026515197,-0.054762267,0.021499634,77.63933688,12.87948411,2.38
152179040084,-0.5136215,-1.502153,9.960709,0.015626526,-0.0636795,0.06449585,77.63933688,12.87948411,2.38
152179040105,-0.085186765,-1.2036483,10.21889,0.010984803,-0.044255067,0.10823059,77.63933688,12.87948411,2.38
152179040126,0.4979431,-1.6345993,10.025675,0.00683136,-0.13356324,0.0023223876,77.63937083,12.87949806,3.9
152179040148,-0.98596346,-1.3692353,10.164935,0.03273163,-0.22604828,0.07403107,77.63937083,12.87949806,3.9
152179040169,-0.65766907,-2.0062027,10.075801,0.03603058,-0.15934142,0.41414946,77.63937083,12.87949806,3.9
152179040190,0.03995819,-2.003688,9.608365,0.048614502,-0.14638825,0.39252624,77.63937083,12.87949806,3.9
152179040211,-0.9538986,-2.4227905,9.550578,0.075733945,-0.13014069,0.5274048,77.63937083,12.87949806,3.9
152179040233,-1.4013611,-1.7062607,9.849561,0.11910553,0.001550293,0.8527527,77.63940799,12.8795128,3.49
152179040254,0.6629303,-1.8201615,10.737897,0.18569183,0.16647491,0.9311813,77.63940799,12.8795128,3.49
152179040275,1.160997,-1.16716,9.554529,0.27402344,0.0797348,0.34255677,77.63940799,12.8795128,3.49
152179040296,0.04988861,-1.4921067,11.725415,0.24946594,-0.058059692,0.31531984,77.63940799,12.8795128,3.49
152179040318,-0.795256,-1.3681549,9.551295,0.21171264,0.008882141,0.47914734,77.63943327,12.87952937,2.64
152179040339,-2.4410386,-1.436232,12.536819,0.33840638,0.38345185,0.9079712,77.63943327,12.87952937,2.64
152179040360,3.633142,-0.7752167,7.5653734,-0.074639894,0.32639772,0.56772155,77.63943327,12.87952937,2.64
152179040381,0.65144503,1.0039673,8.786072,-0.14782715,0.108320616,-1.2207031E-4,77.63943327,12.87952937,2.64
152179040403,0.72969055,-4.7761335,11.192055,-0.25618744,0.03319397,-0.30897063,77.63943327,12.87952937,2.64
152179040424,0.6995392,1.5723816,8.846609,-0.3243622,-0.11511536,-0.4750015,77.63944518,12.87954618,1.86
152179040445,0.86739653,-0.0017318726,9.693907,0.25924224,-0.20136413,-0.5852005,77.63944518,12.87954618,1.86
152179040466,-1.8167527,-0.14303131,11.27305,-0.053393554,-0.32928008,-0.42955628,77.63944518,12.87954618,1.86
152179040488,-1.8878189,0.090983585,8.361467,-0.0019622804,-0.068566896,0.68842924,77.63944518,12.87954618,1.86
152179040509,-0.390271,-1.5818329,10.933868,-0.16663666,0.08010254,0.69636995,77.63944518,12.87954618,1.86
152179040530,0.34420776,-1.44664,9.642225,-0.19400482,0.043814085,0.56161344,77.63945535,12.87955742,1.15
152179040552,0.8416748,-0.23228149,9.859968,0.11764221,0.0011810303,0.28489533,77.63945535,12.87955742,1.15
152179040573,-0.34445038,-0.9480957,10.149023,0.09760437,0.014132691,0.12509307,77.63945535,12.87955742,1.15
152179040594,-0.3705307,-1.0319626,10.049121,0.03847046,0.0065582274,0.16406555,77.63945535,12.87955742,1.15
152179040615,0.24669495,-0.6915833,9.205533,-0.007946777,-0.04169159,0.13791808,77.63945937,12.8795662,1.46
152179040636,-0.53934634,-0.9530029,10.783363,0.06693878,-0.017869567,0.1753006,77.63945937,12.8795662,1.46
152179040658,-0.04498749,-0.5526794,9.680389,0.12998047,-0.031184386,0.19008942,77.63945937,12.8795662,1.46
152179040679,-0.5852844,-1.0796998,9.983679,0.11886139,-0.034117125,0.11666413,77.63945937,12.8795662,1.46
152179040700,-0.5224762,0.2125473,9.675603,-0.03128357,-0.021284485,0.2682785,77.63945937,12.8795662,1.46
152179040721,0.0054992675,-0.5165497,8.47572,0.066453554,-0.055126954,0.22221375,77.63945724,12.87957917,2.1
152179040743,-1.0455459,-0.9459427,9.653709,-0.015275573,-5.264282E-4,0.335347,77.63945724,12.87957917,2.1
152179040764,-0.16295318,-0.4554123,9.652751,0.016609192,0.12835693,0.40535736,77.63945724,12.87957917,2.1
152179040785,0.49280244,-0.91004944,10.284337,0.01795044,0.12872314,0.16431427,77.63945724,12.87957917,2.1
152179040806,-0.1325653,-0.209552,8.942678,3.5705566E-4,0.08352204,-0.041777037,77.63945724,12.87957917,2.1
152179040828,-9.5825194E-4,-0.39009094,9.77981,-0.034092713,0.15694427,0.041775513,77.63944861,12.8795985,2.95
152179040849,0.44530335,-0.32177582,9.647249,0.0014556885,0.1479065,-0.15527649,77.63944861,12.8795985,2.95
152179040870,0.6076538,-0.41700897,10.05618,0.046290588,-0.034362793,-0.36846772,77.63944861,12.8795985,2.95
152179040892,-0.65970457,-0.54693604,9.7172365,0.04641571,-0.10521851,-0.30212706,77.63944861,12.8795985,2.95
152179040913,-0.83964384,-0.46091765,9.935822,0.009397889,-0.04119873,-0.017097473,77.63943554,12.87962139,3.05
152179040934,0.4176651,-0.4210785,9.873729,-0.01222229,-0.007974243,-0.0712204,77.63943554,12.87962139,3.05
152179040955,-0.23940277,-0.34725952,9.872172,0.023934936,-0.099717714,-0.2115982,77.63943554,12.87962139,3.05
152179040977,-0.85375977,-0.6078354,9.81415,0.010128784,-0.093367,-0.028468322,77.63943554,12.87962139,3.05
152179040998,-0.029553223,-0.5976669,9.595202,0.0030441284,-0.04108124,0.07878876,77.63943554,12.87962139,3.05
152179041019,-0.17767182,-0.40599975,9.646291,-0.023098756,-0.031309508,-0.0018310547,77.63942584,12.87965127,3.46
152179041040,-0.10002289,-0.5737381,9.740927,0.0047576902,-0.038513184,0.03212738,77.63942584,12.87965127,3.46
152179041062,-0.032302856,-0.6946945,9.811874,-0.014913941,-0.031672668,0.0015930176,77.63942584,12.87965127,3.46
152179041083,-0.7965744,-0.6007767,9.746191,0.00206604,0.024024963,0.11629486,77.63942584,12.87965127,3.46
152179041104,0.2860611,-0.5164307,9.904836,0.008660888,0.04247284,0.025532532,77.63942584,12.87965127,3.46
152179041125,-0.48000184,-0.31818542,9.78304,0.005003357,0.049313355,-0.005860901,77.63941256,12.87968174,3.39
152179041147,-0.076690674,-0.47037047,10.482821,0.0097671505,0.03966217,-0.043855287,77.63941256,12.87968174,3.39
152179041168,0.45583192,-0.68835604,9.377096,-0.012716675,-7.720947E-4,-0.10054169,77.63941256,12.87968174,3.39
152179041189,-0.29288483,-0.078424074,9.914647,0.018438721,-0.060017396,-0.12705688,77.63941256,12.87968174,3.39
152179041210,-0.49854738,-0.124723814,11.867907,0.019294739,-0.08775024,-0.04397583,77.63941256,12.87968174,3.39
152179041232,-0.9153763,0.16468506,12.5204315,-0.0066085816,-0.075042725,0.009893799,77.63939676,12.87971541,4.03
152179041253,-0.7351974,0.14326935,12.444097,0.0047576902,-0.022634888,0.098825075,77.63939676,12.87971541,4.03
152179041274,-0.11904602,-0.02949066,11.342323,-0.0067245485,0.037586976,0.08135681,77.63939676,12.87971541,4.03
152179041295,1.1978439,-0.9872177,8.809401,-0.023460388,0.053222656,0.019425964,77.63939676,12.87971541,4.03
152179041317,-0.50764006,-0.019921875,9.37734,0.00940094,0.004968262,-0.064871214,77.63937907,12.87975406,4.34
152179041338,0.16689911,-0.5963516,9.80912,0.007444763,-0.02910614,-0.05558319,77.63937907,12.87975406,4.34
152179041359,-0.10648193,-0.37633055,9.788663,-0.0041625975,-0.029716492,0.010145569,77.63937907,12.87975406,4.34
152179041380,-0.011128235,-0.46642,9.8366375,0.011964416,-0.01737976,-0.016610717,77.63937907,12.87975406,4.34
152179041402,-0.3566513,-0.4836487,9.914287,0.008665467,-0.007977295,0.0276062,77.63937907,12.87975406,4.34
152179041423,-0.022134399,-0.4055237,9.985713,0.001210022,0.01534729,0.018571472,77.63936035,12.87979352,4.41
152179041444,-0.18508606,-0.3147171,9.877078,-0.009292603,0.02047882,2.471924E-4,77.63936035,12.87979352,4.41
152179041465,-0.08901367,-0.31974182,9.655025,0.015628051,0.0076553347,-0.026263427,77.63936035,12.87979352,4.41
152179041487,0.00418396,-0.19375762,9.857695,0.0046310425,0.01730957,-0.026139831,77.63936035,12.87979352,4.41
152179041508,0.19381866,0.17736968,10.195322,-0.008198547,-0.0078491215,-0.05155182,77.63936035,12.87979352,4.41
152179041529,-0.14847565,-0.3217743,9.580606,0.015016174,-0.09092407,-0.10506134,77.63934388,12.87983415,4.74
152179041550,-0.5671005,-0.4351944,9.914287,0.008911133,-0.094099425,0.020152282,77.63934388,12.87983415,4.74
152179041572,-0.32494813,-0.39475402,9.706591,0.0031692504,-0.035580445,0.073416136,77.63934388,12.87983415,4.74
152179041593,-0.06137848,-0.27176362,9.971952,-0.016256714,0.004234314,0.0526474,77.63934388,12.87983415,4.74
152179041615,-0.04809723,-0.09744873,9.851715,-0.024932861,-0.034848023,-0.0045181275,77.63933047,12.87988869,5.45
152179041635,-0.3517456,-0.37441558,9.84609,0.0091522215,-0.042424012,0.046298217,77.63933047,12.87988869,5.45
152179041657,-0.468396,-0.7567917,9.054906,0.0057357787,0.06226349,0.14292756,77.63933047,12.87988869,5.45
152179041678,0.32733613,-0.66801757,9.865354,-0.01698761,0.086940005,0.014045715,77.63933047,12.87988869,5.45
152179041699,-0.16247253,-0.76660156,9.752652,-0.0036727905,0.045033265,-0.027485657,77.63933047,12.87988869,5.45
152179041720,-0.10253449,-0.60795593,9.883181,-0.011984253,0.029278565,-0.008546447,77.6393051,12.87993121,5.45
152179041742,0.03959961,-0.6339203,9.740926,0.053257752,0.033311464,-0.042633057,77.6393051,12.87993121,5.45
152179041763,-0.34181517,-0.75822294,9.556679,0.027236938,0.02744751,-0.046174623,77.6393051,12.87993121,5.45
152179041784,0.13148347,-0.762294,9.684217,-0.057661436,-0.011151123,-0.07513275,77.6393051,12.87993121,5.45
152179041805,-0.22504577,-0.6235092,10.171277,0.006954956,-0.06782989,-0.101278685,77.6393051,12.87993121,5.45
152179041827,-0.95174867,-0.7418335,10.024475,0.008297729,-0.094955444,-0.0394577,77.63926307,12.87998631,6.19
152179041848,0.14811249,-0.59551543,10.183003,0.010743713,-0.062091064,0.027975464,77.63926307,12.87998631,6.19
152179041869,-0.031826783,-0.94175565,9.454147,0.039575197,-0.034605406,0.018569946,77.63926307,12.87998631,6.19
152179041890,-0.6638916,-0.4898712,10.552694,0.03297882,-0.012614441,0.03530121,77.63926307,12.87998631,6.19
152179041912,0.19178315,-0.2660202,9.645212,-0.034698486,-0.022024537,8.5754396E-4,77.63922785,12.88004671,6.58
152179041933,-0.28498536,-1.1555526,9.788902,0.02527771,-0.0051651,0.032369994,77.63922785,12.88004671,6.58
152179041954,-0.10552368,-0.6683731,9.630381,-0.0040374757,0.037953187,0.032492064,77.63922785,12.88004671,6.58
152179041976,0.012681579,-0.5346161,10.514048,-0.013569641,0.023049926,-0.012942505,77.63922785,12.88004671,6.58
152179041997,-0.013877869,-0.91160583,8.934425,-0.10029755,-0.015057373,-0.036405943,77.63922785,12.88004671,6.58
152179042018,-0.036372375,-0.13393554,10.0438595,0.054232787,-0.035946656,-0.016854858,77.63920978,12.88007414,6.07
152179042039,-0.24801788,-1.025502,9.614946,0.019784546,-0.023605347,-0.0052505494,77.63920978,12.88007414,6.07
152179042061,-0.064848326,-0.16708222,9.681941,-0.06560516,-0.055491637,0.0034240722,77.63920978,12.88007414,6.07
152179042082,-0.4472168,-0.42203522,10.175104,0.063150026,-4.043579E-4,0.045806885,77.63920978,12.88007414,6.07
152179042103,-0.43166655,-0.2643463,10.195323,-0.018089294,0.08132019,0.084042355,77.63920978,12.88007414,6.07
152179042124,0.44494477,-0.5947937,9.663757,-0.035554506,0.07619019,-0.042755127,77.63919342,12.88011393,6.17
152179042146,-0.08638153,-0.6014984,9.807684,-0.0102676395,0.0058258055,-0.09357758,77.63919342,12.88011393,6.17
152179042167,-0.330571,-0.038342286,10.665033,0.022836303,-0.026786804,-0.042878725,77.63919342,12.88011393,6.17
152179042188,0.102890015,-0.9991821,9.7337475,-0.0041625975,-0.034602355,-0.041778564,77.63919342,12.88011393,6.17
152179042210,-0.3719696,-0.5037491,9.693787,-0.009048462,-0.059403993,-0.021621704,77.63919342,12.88011393,6.17
152179042231,-0.18556365,-0.5650055,10.273931,0.014038086,-0.023240661,0.028460693,77.63915559,12.88017419,6.91
152179042252,-0.094277956,-0.6184845,9.925412,-0.0077041625,0.025244141,0.022602845,77.63915559,12.88017419,6.91
152179042273,-0.07094727,-0.59180605,9.912015,0.009275818,0.02695923,-0.009890747,77.63915559,12.88017419,6.91
152179042295,0.0035873414,-0.51272583,10.259929,0.011967468,-0.004800415,-0.04837494,77.63915559,12.88017419,6.91
152179042316,0.055511475,-0.82103574,9.612552,0.008543396,-0.031791687,-0.034204103,77.639122,12.88022907,6.96
152179042337,-0.060063172,-0.6049652,9.687803,-0.0017211915,-0.043397523,-0.02589569,77.639122,12.88022907,6.96
152179042358,-0.38596192,-0.48352814,9.504036,0.053622436,-0.026419068,-0.004397583,77.639122,12.88022907,6.96
152179042379,-0.13687134,-0.55471647,9.527369,0.015138244,-0.023731995,0.0077026365,77.639122,12.88022907,6.96
152179042401,-0.21296234,-0.38721925,9.765692,-0.005140686,-0.015788268,0.015640259,77.639122,12.88022907,6.96
152179042422,0.0917633,-0.6564102,9.520788,-0.009292603,0.010952759,0.0035476685,77.63908812,12.88028728,7.26
152179042443,-0.1499115,-0.5691925,9.5654125,-0.0028198243,-0.014205933,-0.016368102,77.63908812,12.88028728,7.26
152179042465,0.10540161,-0.5319824,10.026393,0.024546813,-0.0022338866,0.006112671,77.63908812,12.88028728,7.26
152179042486,-0.039361574,-0.56488645,9.889521,0.030166626,0.005705261,-0.0024398803,77.63908812,12.88028728,7.26
152179042507,-0.053361513,-0.6202774,9.474726,-0.01137085,-0.01639862,-0.012455749,77.63908812,12.88028728,7.26
152179042528,-0.018545533,-0.52995145,10.064914,0.030410767,-0.0039489744,0.007209778,77.63904577,12.88034866,7.34
152179042550,-0.029554749,-0.5840286,9.958435,0.002067566,-0.010662842,-0.009034729,77.63904577,12.88034866,7.34
152179042571,-0.19633178,-0.55543214,9.771437,-0.021266174,-0.012371826,0.006114197,77.63904577,12.88034866,7.34
152179042592,-0.0854248,-0.53880465,9.5780945,-0.027377319,0.002406311,0.0074508665,77.63904577,12.88034866,7.34
152179042613,0.11198425,-0.45589295,9.773946,-0.011250305,0.0021591187,-0.0145370485,77.63900473,12.8804065,7.48
152179042634,-0.229953,-0.43244323,9.876002,0.018925477,-0.034722902,-0.026995849,77.63900473,12.8804065,7.48
152179042656,-0.26644287,-0.5264801,9.605014,-0.022613525,-0.026173402,0.01552124,77.63900473,12.8804065,7.48
152179042677,-0.4717453,-0.3485733,10.099014,0.0017028808,0.01865387,0.04030609,77.63900473,12.8804065,7.48
152179042698,-0.010173035,-0.62099457,9.850998,0.011233521,0.04430542,0.01136322,77.63900473,12.8804065,7.48
152179042719,0.023208618,-0.54215544,9.676204,-0.002822876,-0.0071243285,-0.057902526,77.63896221,12.88047573,7.6
152179042741,-0.16881561,-0.5138016,9.576782,0.021496583,-0.06819763,-0.045199584,77.63896221,12.88047573,7.6
152179042762,-0.31274414,-0.7135986,9.884497,0.008665467,-0.055374146,0.031640626,77.63896221,12.88047573,7.6
152179042783,-0.28331298,-1.1921647,8.7915745,-0.07549896,0.0074142455,0.04873352,77.63896221,12.88047573,7.6
152179042805,-0.3857254,-1.4513061,7.235283,0.36296692,0.031600952,0.024061585,77.63896221,12.88047573,7.6
152179042826,0.60980684,1.0272964,10.181208,-0.2985901,0.041374207,0.0048858644,77.63893188,12.88053616,7.28
152179042847,-0.35473633,-1.4351547,9.151097,0.12876281,-0.048410036,-0.02211151,77.63893188,12.88053616,7.28
152179042868,-0.41252288,-0.61537474,9.33295,-0.08368988,0.05896454,0.08977814,77.63893188,12.88053616,7.28
152179042890,0.27146453,-1.2424119,9.64007,0.08538513,0.06922607,-0.021011353,77.63893188,12.88053616,7.28
152179042911,-0.097270206,-0.9905685,10.355764,-0.016622925,0.0063156127,-0.077941895,77.63889375,12.88059488,7.61
152179042932,-0.28642425,-1.0695343,9.498535,-0.009413147,-0.027882386,-0.033961486,77.63889375,12.88059488,7.61
152179042953,-0.24885711,-1.2568878,9.447805,-0.013442993,0.032821655,-0.003904724,77.63889375,12.88059488,7.61
152179042975,0.017704774,-0.8935379,9.934265,0.02857666,0.05053406,-0.04568634,77.63889375,12.88059488,7.61
152179042996,-0.15290222,-1.1918061,10.345831,0.0054870606,-0.042059325,-0.116673276,77.63889375,12.88059488,7.61
152179043017,-0.6809967,-0.78406984,9.843939,-0.013813782,-0.09361267,-0.05301819,77.63885929,12.88065648,7.56
152179043038,0.04653778,-0.7754547,9.497698,0.025157165,-0.04119568,0.004888916,77.63885929,12.88065648,7.56
152179043059,-0.31609496,-0.38302916,10.069583,0.0050003054,-0.0050445558,3.692627E-4,77.63885929,12.88065648,7.56
152179043081,0.060418703,-0.74925387,9.7350645,-0.0033050538,9.399414E-4,-0.028463745,77.63885929,12.88065648,7.56
152179043102,-0.06413116,-0.5531586,9.879112,-0.0048965453,-0.023120116,-0.040553283,77.63885929,12.88065648,7.56
152179043123,-0.08447113,-0.49991912,9.359632,-0.030914307,-0.056469727,-0.015390014,77.63882297,12.88072374,7.21
152179043144,-0.5398239,-1.0759903,9.325293,-0.0011123657,-0.036805727,0.017474364,77.63882297,12.88072374,7.21
152179043166,-0.28606263,-1.0606781,9.482501,-0.019430542,-0.029594421,0.01771698,77.63882297,12.88072374,7.21
152179043187,-0.16187592,-0.89951783,9.786509,0.02515564,0.040640257,0.048127748,77.63882297,12.88072374,7.21
152179043208,0.30077666,-1.1512451,9.242264,0.0065872194,0.0030166626,-0.05192108,77.63882297,12.88072374,7.21
152179043230,0.03540802,-1.2644256,9.729083,0.012817383,-0.039608765,-0.014779663,77.63878952,12.88078656,7.19
152179043251,-0.72131807,-0.8458023,11.050517,-6.195068E-4,-0.017623901,0.012585449,77.63878952,12.88078656,7.19
152179043272,0.8068573,-1.3393234,7.9061112,0.012454224,-0.023242187,0.0014709473,77.63878952,12.88078656,7.19
152179043293,-1.0995041,-0.6230316,11.563418,-0.024559021,-0.030937195,0.008187866,77.63878952,12.88078656,7.19
152179043315,-0.2928818,-1.0749161,10.5768585,0.018560791,-0.021896362,0.017347718,77.63874988,12.88084648,6.95
152179043336,0.57906187,-1.2592819,7.6551027,-0.013566589,0.0010559082,0.034326173,77.63874988,12.88084648,6.95
152179043357,0.4968689,-1.6172485,7.554723,0.009765625,0.033189394,0.03139343,77.63874988,12.88084648,6.95
152179043378,0.34719545,-1.7957535,8.177458,-0.007585144,0.047114562,0.011122132,77.63874988,12.88084648,6.95
152179043400,0.59724885,-1.5892532,7.5827208,0.018191528,0.031965636,-0.030537415,77.63874988,12.88084648,6.95
152179043421,0.049409486,-0.5398804,9.055742,-0.011247253,0.012051391,-0.034077454,77.63870946,12.88089142,6.5
152179043442,-0.5600403,-0.05580902,10.481984,0.010006714,0.003866577,-0.041656494,77.63870946,12.88089142,6.5
152179043463,-0.9248276,-0.15810394,11.557439,-0.008926392,-0.0011383056,-0.04043579,77.63870946,12.88089142,6.5
152179043485,-0.6203415,-0.980278,12.3050785,-0.0045318604,-0.0052886964,-0.04483185,77.63870946,12.88089142,6.5
152179043506,-0.37890625,-1.5278763,11.674687,0.0018234253,-0.0012619018,-0.05240631,77.63870946,12.88089142,6.5
152179043527,-0.22504577,-1.6434479,11.266594,-0.024195861,-0.020310974,-0.061325073,77.63867991,12.88093779,6.19
152179043548,-0.08327179,-1.4079956,10.653669,0.0052505494,-0.06282654,-0.06144867,77.63867991,12.88093779,6.19
152179043570,-0.109233096,-1.3967514,10.39046,0.025036622,-0.07247619,-0.045565795,77.63867991,12.88093779,6.19
152179043591,0.052520752,-1.0061219,9.754209,-0.0030609132,-0.081637576,-0.010624695,77.63867991,12.88093779,6.19
152179043612,-0.015197754,-0.85190123,9.240947,-0.017964173,-0.06453552,0.021260072,77.63865645,12.88098655,5.98
152179043633,-0.008854675,-0.7820343,8.861565,0.022227477,-0.032650758,0.060949706,77.63865645,12.88098655,5.98
152179043655,0.4425537,-1.0083969,7.635724,-0.013563538,-0.007977295,0.054231264,77.63865645,12.88098655,5.98
152179043676,0.030265808,-1.1636902,8.3742695,-5.0048827E-4,0.006678772,0.0559433,77.63865645,12.88098655,5.98
152179043697,-0.32662353,-1.1038666,9.346109,-0.007830811,0.059210204,0.08086701,77.63865645,12.88098655,5.98
152179043718,0.48215333,-0.6955322,10.502202,-0.054367065,0.07619171,0.02198944,77.63862838,12.881029,5.94
152179043740,0.35987854,-1.5695114,8.4599285,-0.03530731,-0.007980347,-0.09113617,77.63862838,12.881029,5.94
152179043761,-0.30305177,-0.8185242,10.665155,-0.017352294,-0.095811464,-0.04459076,77.63862838,12.881029,5.94
152179043782,-0.49591523,-1.5762131,9.170477,0.06803894,-0.059159853,0.054112244,77.63862838,12.881029,5.94
152179043803,-0.090090945,-0.8760727,10.782046,0.016728211,0.009127808,0.09479065,77.63862838,12.881029,5.94
152179043825,-0.053721618,-1.2982849,9.624875,0.04653778,0.05554352,0.07341156,77.63860338,12.88107527,5.86
152179043846,0.33571166,-1.1306671,9.546511,-0.03629303,0.06824951,0.0019592284,77.63860338,12.88107527,5.86
152179043867,0.28283232,-0.90873414,9.671057,-0.014544678,0.006922913,-0.061691284,77.63860338,12.88107527,5.86
152179043888,-0.056710817,-0.89748687,10.402064,-0.049116515,-0.09385376,-0.115327455,77.63860338,12.88107527,5.86
152179043910,-0.583371,-1.1997025,9.643059,0.045193482,-0.19819489,-0.054855347,77.63860338,12.88107527,5.86
152179043931,-0.5570496,-1.249231,9.378415,-0.0045288084,-0.12232361,0.1613739,77.63857421,12.88111861,5.67
152179043952,-0.059584044,-1.0281357,9.467547,0.019047547,0.030020142,0.24469605,77.63857421,12.88111861,5.67
152179043974,0.073458865,-1.115834,10.290319,0.021492004,0.18015595,0.18275604,77.63857421,12.88111861,5.67
152179043995,0.68661803,-1.0647461,9.649523,-0.058030702,0.10123596,-0.06951294,77.63857421,12.88111861,5.67
152179044016,-0.23892517,-0.61262053,10.753329,0.31580964,-0.007972717,-0.12595215,77.63855577,12.88117216,5.33
152179044037,0.139859,-2.4881148,11.024675,-0.5387756,-0.05965271,0.025044251,77.63855577,12.88117216,5.33
152179044059,-0.5011749,-0.04671936,7.01335,0.2963791,-0.08114777,0.06596527,77.63855577,12.88117216,5.33
152179044080,0.20255128,-1.1472976,10.132393,-0.0037872314,0.06873627,0.06499176,77.63855577,12.88117216,5.33
152179044101,-0.5832535,-0.37310332,8.147428,-0.0062408447,0.10661163,0.08648224,77.63855577,12.88117216,5.33
152179044122,0.5094315,-1.0225112,10.58272,0.020028686,0.10282745,-0.08856964,77.63852443,12.88121186,5.07
152179044144,-0.43944246,-1.1933609,9.155045,-0.0096557615,0.012420654,-0.10555267,77.63852443,12.88121186,5.07
152179044165,0.032060243,-0.91351926,9.711256,0.016360473,0.0055770874,-0.100666806,77.63852443,12.88121186,5.07
152179044186,-0.08590241,-1.0505081,9.627149,-0.009417725,-0.03558197,-0.12350921,77.63852443,12.88121186,5.07
152179044207,-0.57009125,-0.65102845,9.408803,0.03468628,-0.103263855,-0.1263214,77.63852443,12.88121186,5.07
152179044228,-0.1803009,-0.8284561,10.206929,0.020637512,-0.07467499,0.00256958,77.63848902,12.88124547,5.05
152179044250,0.8661987,-1.2117875,8.368884,0.016970824,0.0105896,0.060829163,77.63848902,12.88124547,5.05
152179044271,-0.9049667,0.028895568,9.729559,-2.532959E-4,0.039782714,-0.010014343,77.63848902,12.88124547,5.05
152179044292,-0.08111878,-0.18801728,9.400307,-0.029203797,0.040640257,-0.039823912,77.63848902,12.88124547,5.05
152179044314,-0.2775696,0.09194336,10.197833,0.053137206,0.040519714,-0.049105834,77.63847053,12.88127821,4.96
152179044335,0.14129333,-0.41916198,9.922422,-0.03726654,0.036608886,-0.12473297,77.63847053,12.88127821,4.96
152179044356,-0.13435669,-0.13046722,10.169722,0.006222534,-0.0414444,-0.1287674,77.63847053,12.88127821,4.96
152179044377,-0.71258545,-0.604129,10.688367,0.022592163,-0.07027435,-0.095654294,77.63847053,12.88127821,4.96
152179044399,0.4011566,-1.1091324,8.976538,-0.056315612,-0.09312439,-0.048495483,77.63847053,12.88127821,4.96
152179044420,-0.9763931,-0.23981933,9.748584,-7.4310304E-4,-0.09666748,-0.03041687,77.63844259,12.88132749,5.28
152179044441,-0.8763733,-0.15439606,10.378975,-3.7536622E-4,-0.059890747,0.045565795,77.63844259,12.88132749,5.28
152179044462,-0.07537536,-1.2172883,9.3138075,0.015873719,-0.009924317,0.069258116,77.63844259,12.88132749,5.28
152179044484,-0.19202423,-0.96711886,9.022362,-0.018942261,-0.041690063,-0.0072052004,77.63844259,12.88132749,5.28
152179044505,-0.08674164,-0.4063614,10.587868,0.03554535,-0.06673279,0.02638855,77.63844259,12.88132749,5.28
152179044526,-0.21272583,-1.8481567,8.722186,0.032125853,-0.020431519,0.09821472,77.63842631,12.88136298,5.25
152179044547,0.100737,-0.93565214,9.382482,-0.07598724,-0.009565735,0.08795013,77.63842631,12.88136298,5.25
152179044569,-0.48550567,-0.97334135,9.613388,0.013061523,0.06898346,0.12851258,77.63842631,12.88136298,5.25
152179044590,-0.033381652,-0.6672958,10.214948,0.051301576,0.12444763,0.07207336,77.63842631,12.88136298,5.25
152179044611,0.20458679,-0.9916458,11.044536,0.037861634,0.085473634,-0.062913515,77.63840904,12.88140984,5.22
152179044632,0.15026855,-1.4468796,10.026154,0.032733154,0.0342865,-0.087834165,77.63840904,12.88140984,5.22
152179044654,-0.18807526,-1.1770874,10.018972,-0.015890503,0.022555541,-0.087590024,77.63840904,12.88140984,5.22
152179044675,-0.09619293,-1.4193604,9.875284,-0.0020858764,0.024513245,-0.08600464,77.63840904,12.88140984,5.22
152179044696,-0.34372863,-1.5165116,10.035364,0.023324585,0.03343048,-0.08917999,77.63840904,12.88140984,5.22
152179044717,0.27612916,-1.9448258,9.704796,-0.03628845,0.0132751465,-0.13768311,77.63839118,12.88144644,4.57
152179044739,0.0354126,-2.0363495,9.711019,-0.03274231,-0.052563477,-0.24360657,77.63839118,12.88144644,4.57
152179044760,-0.58325195,-2.1494095,9.632774,-0.07806244,-0.06111603,-0.15002441,77.63839118,12.88144644,4.57
152179044781,-0.6570679,-2.578804,10.210042,-0.13609008,0.035995483,0.020887757,77.63839118,12.88144644,4.57
152179044802,0.08721771,-1.4272598,10.347026,0.22918701,0.15181427,-0.046179198,77.63839118,12.88144644,4.57
152179044824,1.1493912,-1.1036285,9.746073,0.2815979,0.040031433,-0.29992828,77.6383696,12.88147045,3.28
152179044845,0.18628235,-1.7135605,9.968602,-0.23615876,-0.08860016,-0.5197174,77.6383696,12.88147045,3.28
152179044867,-0.9058029,-1.3378861,8.874006,-0.05228729,-0.06795502,-0.3483078,77.6383696,12.88147045,3.28
152179044887,0.07357635,-3.1454253,7.7131286,-0.60926664,0.0035079955,0.015760804,77.6383696,12.88147045,3.28
152179044909,0.54855347,-2.0054824,12.061844,0.16444245,0.08780213,-0.22613525,77.6383696,12.88147045,3.28
152179044930,-0.45726928,-0.11168365,6.463121,0.28538665,-0.05391083,-0.39180145,77.63835451,12.88149666,2.94
152179044951,-1.5302124,-3.6580887,13.731915,0.2972412,0.11578522,-0.25814667,77.63835451,12.88149666,2.94
152179044972,-0.55932313,-2.0273788,9.595563,-0.34622496,0.024398804,-0.19302674,77.63835451,12.88149666,2.94
152179044994,-0.38847503,-0.64157563,8.433367,0.17176361,0.081199646,-0.07928314,77.63835451,12.88149666,2.94
152179045015,0.92805785,-1.6946564,10.984835,0.14488526,0.07802429,-0.32522124,77.63837813,12.88151551,2.3
152179045036,-0.0722641,-1.1450256,9.247403,0.04250183,0.029521178,-0.48953858,77.63837813,12.88151551,2.3
152179045057,-0.4734192,-1.5275177,10.894506,0.0947937,0.017675782,-0.49332732,77.63837813,12.88151551,2.3
152179045079,0.057785034,-1.2761505,9.77347,0.048490904,-0.012611389,-0.48013458,77.63837813,12.88151551,2.3
152179045100,-0.15828705,-1.2998428,9.654307,0.09454956,-0.030082703,-0.46204987,77.63837813,12.88151551,2.3
152179045121,-0.7345993,-1.2180054,9.488124,0.02992401,-0.016644288,-0.3827591,77.63838436,12.88153665,2.46
152179045142,-1.1332413,-0.8397034,9.02595,0.011352539,0.058595277,-0.23798676,77.63838436,12.88153665,2.46
152179045164,-0.15984192,-0.8808578,10.094826,0.0014556885,0.11650543,-0.22919007,77.63838436,12.88153665,2.46
152179045185,1.0277176,-1.4142196,9.303637,0.050694276,0.05127106,-0.56431276,77.63838436,12.88153665,2.46
152179045206,-0.039242554,-0.5878555,10.231577,0.13107757,-0.07100983,-0.820018,77.63838436,12.88153665,2.46
152179045228,-1.0742584,-0.64241487,8.969241,-0.022483826,-0.14565583,-0.5551483,77.63840512,12.88154213,2.26
152179045249,-0.31010896,-0.38470763,10.781566,0.19216156,-0.11694489,-0.32106322,77.63840512,12.88154213,2.26
152179045270,-0.41647187,0.19950256,9.503319,0.10420227,-0.15445252,-0.19266358,77.63840512,12.88154213,2.26
152179045291,-0.61950225,-0.04911499,10.926931,-0.009286499,-0.104486085,-0.10042572,77.63840512,12.88154213,2.26
152179045312,0.1719223,-0.73453677,8.032211,-0.072813414,-0.015919495,0.16308899,77.63842808,12.88154238,2.33
152179045334,1.1984421,-0.48316956,8.342563,0.04055176,0.014500427,0.042391967,77.63842808,12.88154238,2.33
152179045355,-0.83964384,0.11982117,8.603856,-0.05582733,-0.05806122,-0.063035585,77.63842808,12.88154238,2.33
152179045377,-0.51661223,-0.9789642,10.097458,-0.0017211915,-0.029109191,0.054730225,77.63842808,12.88154238,2.33
152179045398,-0.07262421,-0.81804353,9.818815,-0.01796875,0.02646942,0.10346985,77.63842808,12.88154238,2.33
152179045419,0.09487305,-0.9630524,9.474844,-0.014913941,0.015107727,-0.0061050416,77.63845538,12.88154852,3.19
152179045440,-0.46373138,-1.2103485,9.118912,0.007443237,-0.035090636,-0.040434264,77.63845538,12.88154852,3.19
152179045462,-0.30424803,-0.65497434,9.931994,0.008424377,0.01559906,0.055093385,77.63845538,12.88154852,3.19
152179045483,0.18352814,-0.83048856,10.0507965,-0.04435272,0.05554657,0.022721862,77.63845538,12.88154852,3.19
152179045504,0.31561127,-0.86458284,9.593768,-6.225586E-4,-0.028375244,-0.10799561,77.63845538,12.88154852,3.19
152179045525,-0.7310089,-0.7340576,9.287966,0.06669617,-0.047186278,-0.04068146,77.63848215,12.88156365,3.59
152179045547,-0.3189667,-0.7588226,9.8786335,0.0059783934,-0.0055358885,0.03908539,77.63848215,12.88156365,3.59
152179045568,-0.047021486,-0.62554324,10.115764,0.0028015138,-0.025564576,-0.024064636,77.63848215,12.88156365,3.59
152179045589,-0.16295013,-0.5947952,10.1505785,0.015142823,-0.0152954105,-0.012823487,77.63848215,12.88156365,3.59
152179045610,-0.06592407,-0.80680084,9.872774,-0.010144043,-0.004797363,0.021009827,77.63851594,12.88158145,3.75
152179045632,0.02153473,-0.89784545,10.122103,0.02173767,-0.02544403,-0.01941986,77.63851594,12.88158145,3.75
152179045653,-0.34983367,-0.4867584,9.602262,0.024545288,-0.04583893,-0.011845398,77.63851594,12.88158145,3.75
152179045674,-0.21918182,-0.5653656,9.504636,0.0014556885,-0.00809784,0.06547394,77.63851594,12.88158145,3.75
152179045695,0.16067657,-0.7364502,9.362025,-0.0023345947,0.03599701,0.07512665,77.63851594,12.88158145,3.75
152179045717,-0.31358033,-0.59670717,9.613986,0.00866394,0.034410097,-0.014045715,77.63854989,12.88158938,3.8
152179045738,-0.04762268,-0.8462814,9.983917,0.009890747,-0.01615448,-0.06523438,77.63854989,12.88158938,3.8
152179045759,0.07381592,-0.60556334,9.194049,-7.6293945E-6,-0.034729004,-0.006109619,77.63854989,12.88158938,3.8
152179045780,-0.669754,-0.63571167,10.308983,-3.7231445E-4,-0.025559997,6.164551E-4,77.63854989,12.88158938,3.8
152179045802,0.13758698,-0.29485473,8.953928,-0.0077041625,-0.013839722,0.038964845,77.63854989,12.88158938,3.8
152179045823,-0.6784897,-0.8503494,9.81618,-0.0141799925,0.02072754,0.056922913,77.63858473,12.88159888,3.88
152179045844,0.20255128,-1.0112641,10.565854,-0.0042861938,0.07509003,0.037745666,77.63858473,12.88159888,3.88
152179045865,0.15373993,0.10666046,9.873729,0.022836303,-0.018481445,-0.13438721,77.63858473,12.88159888,3.88
152179045887,-0.49065095,-0.5987442,9.139372,0.008416748,-0.06917725,-0.08478089,77.63858473,12.88159888,3.88
152179045908,0.35090485,-1.3163497,8.935384,0.006588745,-0.04840851,0.017715454,77.63858473,12.88159888,3.88
152179045929,0.2588989,-1.4142166,8.338015,0.0018188476,-0.031430054,0.023825074,77.63862226,12.88161033,4.5
152179045950,0.5868393,-1.0025345,8.797918,-0.0013534545,-0.027883912,0.0096557615,77.63862226,12.88161033,4.5
152179045972,0.32063752,-1.2890717,8.5717945,0.006098938,-0.016525269,0.033590697,77.63862226,12.88161033,4.5
152179045993,0.5112259,-1.0038497,8.480029,-7.415771E-4,0.0033813477,0.043232728,77.63862226,12.88161033,4.5
152179046014,-0.039482117,-0.46988982,8.421167,0.0097640995,-5.264282E-4,0.005993652,77.63866265,12.88162442,4.67
152179046035,-1.002594,-0.025784303,10.13562,0.005976868,0.0059494018,0.0063537597,77.63866265,12.88162442,4.67
152179046057,-0.8930008,-0.3558716,10.967606,0.009397889,0.0016693115,-0.0012161254,77.63866265,12.88162442,4.67
152179046078,-0.77958375,-0.67842406,11.583641,0.0035308837,-0.021287536,-0.01941986,77.63866265,12.88162442,4.67
152179046099,-0.59593505,-0.8358749,11.833209,0.00940094,-0.03289642,-2.3803712E-4,77.63866265,12.88162442,4.67
152179046120,-0.53072816,-0.75009,11.203062,0.001210022,-0.035215758,0.030296326,77.63871523,12.88164983,5.04
152179046142,-1.0076172,-0.37345886,10.933632,-0.0013519287,-0.0041870116,0.050326537,77.63871523,12.88164983,5.04
152179046163,-0.82588655,-0.589769,11.393171,0.00866394,0.026834106,0.06009674,77.63871523,12.88164983,5.04
152179046184,-0.7357956,-0.6111847,11.577418,0.0031692504,0.042956542,0.018086243,77.63871523,12.88164983,5.04
152179046205,-0.6580261,-0.75523376,11.520346,-3.768921E-4,0.047721863,-0.0068359375,77.63871523,12.88164983,5.04
152179046227,-0.5949768,-0.8855225,11.509224,0.01342926,0.053224184,-0.031391907,77.63876282,12.88166463,4.95
152179046248,-0.49507752,-0.83934176,11.916359,0.014042663,0.033059694,-0.075619504,77.63876282,12.88166463,4.95
152179046269,-0.6880585,-0.2714035,11.015581,0.0061004637,0.0028945922,-0.1060379,77.63876282,12.88166463,4.95
152179046290,-0.7968094,0.07328186,9.854466,0.010620117,-0.019332886,-0.09223785,77.63876282,12.88166463,4.95
152179046312,-0.12921448,-0.2541794,9.6410265,0.015750121,-0.01701355,-0.068287656,77.63876282,12.88166463,4.95
152179046333,0.56410825,-1.2427734,9.062678,0.01159668,-0.029833984,-0.08869171,77.6388088,12.88168076,5.07
152179046354,-0.07190704,-0.7496109,9.054426,-0.028347779,-0.08774567,-0.10885315,77.6388088,12.88168076,5.07
152179046375,-0.6010788,-0.5461014,10.078674,0.019050598,-0.10020904,-0.026998902,77.6388088,12.88168076,5.07
152179046397,-0.05778656,-1.0117462,11.271971,-0.0037948608,-0.04498749,0.04030609,77.6388088,12.88168076,5.07
152179046418,-0.6460663,0.04133606,10.238991,-0.009173584,0.003869629,0.053623963,77.63885248,12.88168407,4.97
152179046439,0.18221131,-0.2998764,9.064596,0.037742615,0.02512207,0.016122436,77.63885248,12.88168407,4.97
152179046460,0.6135193,-1.4727204,8.614744,-0.012223816,-0.010784912,-0.04714966,77.63885248,12.88168407,4.97
152179046482,-0.11318054,-0.3939209,8.763458,-0.0064865113,-0.06148224,-0.037139893,77.63885248,12.88168407,4.97
152179046503,-0.24586639,-0.92368776,10.93387,0.011842346,-0.070646666,0.0034210205,77.63885248,12.88168407,4.97
152179046524,-0.34648132,-0.60065764,10.905035,-0.019186402,-0.05072937,0.06987152,77.63890135,12.88170094,5.13
152179046545,-0.17001191,-0.2210373,8.950337,0.011964416,-0.03252411,0.07549286,77.63890135,12.88170094,5.13
152179046567,0.41240233,-1.4297683,9.178258,0.0067108152,-0.006752014,0.07842255,77.63890135,12.88170094,5.13
152179046588,-0.18042144,-0.6460022,8.8564205,0.020515442,5.691528E-4,0.07610321,77.63890135,12.88170094,5.13
152179046609,-0.023210144,-0.46522522,10.7083435,0.025648499,0.0056991577,0.06400299,77.63890135,12.88170094,5.13
152179046630,-0.17659302,-0.5739792,10.951937,-0.015524292,0.011566162,0.06877136,77.63894356,12.88171819,4.62
152179046652,-0.29527894,-0.06502533,9.104917,0.0054855347,0.015713502,0.05521393,77.63894356,12.88171819,4.62
152179046673,0.1080368,-1.0301712,8.327606,0.025769044,0.030863952,0.05264435,77.63894356,12.88171819,4.62
152179046694,-0.52618104,0.0863205,8.980009,0.1641922,0.05065613,0.041407775,77.63894356,12.88171819,4.62
152179046715,-0.74022067,-1.4235489,11.492592,-0.30859986,0.04784851,0.005375671,77.63896639,12.88172808,4.12
152179046737,-0.6559906,0.8705689,10.143282,0.03995056,0.02218933,0.005253601,77.63896639,12.88172808,4.12
152179046758,0.6713028,-1.3834702,10.557478,0.05912628,0.065560915,-0.064993285,77.63896639,12.88172808,4.12
152179046779,-0.2727829,-0.17305908,9.798952,0.0665741,-0.051098634,-0.067677304,77.63896639,12.88172808,4.12
152179046800,-0.22516784,-0.75487363,9.922539,0.023936462,-0.05659332,-0.07672119,77.63896639,12.88172808,4.12
152179046822,-0.127417,-0.49106598,8.825912,-0.02626953,-0.04071045,0.028953552,77.63900981,12.88174372,4.84
152179046843,-1.208258,0.5908478,11.401304,0.030657958,0.042352296,0.04397125,77.63900981,12.88174372,4.84
152179046864,0.10085907,0.04839325,10.252034,-0.08637695,0.046136476,-0.016493225,77.63900981,12.88174372,4.84
152179046885,-0.40989074,0.698645,10.929083,0.091256715,-0.03753815,-0.091256715,77.63900981,12.88174372,4.84
152179046907,-0.8063828,-0.9879364,10.161588,-0.050946046,-0.035705566,-0.021498108,77.63900981,12.88174372,4.84
152179046928,0.09511261,-0.07675018,9.210317,0.03261261,-0.010786438,0.021260072,77.639049,12.88176036,4.82
152179046949,0.32769316,-0.58881223,10.168645,0.0243042,0.032089233,-0.02540741,77.639049,12.88176036,4.82
152179046970,-0.22564545,-0.32357177,9.774546,-0.06890564,6.942749E-4,-0.024673462,77.639049,12.88176036,4.82
152179046992,0.42352754,-1.0203568,9.421247,0.04934845,-0.0054122927,-0.076351926,77.639049,12.88176036,4.82
152179047013,0.41288146,-0.90849304,8.720865,-0.037506104,-0.07247619,-0.08294983,77.63909397,12.88177737,5.49
152179047034,-0.81834716,-0.32249147,10.125933,0.02332306,-0.095199585,-0.032980345,77.63909397,12.88177737,5.49
152179047055,-0.81990206,-0.26027983,10.494426,-0.0034317016,-0.06746521,0.04947052,77.63909397,12.88177737,5.49
152179047077,-0.19226532,-0.6286545,9.731714,-0.012593078,0.004852295,0.11397705,77.63909397,12.88177737,5.49
152179047098,0.15947875,-0.64516294,9.476163,0.011964416,0.06873779,0.06266327,77.63909397,12.88177737,5.49
152179047119,0.34420624,-0.31160888,9.596042,-0.012225342,0.03782959,-0.017466735,77.6391345,12.8817899,5.27
152179047140,0.08649902,-0.46139526,10.154408,0.0074401856,-4.043579E-4,-0.04483185,77.6391345,12.8817899,5.27
152179047162,-0.26799926,-0.22318879,10.826906,0.031877138,-0.060995482,-0.071099855,77.6391345,12.8817899,5.27
152179047183,-0.31370085,-0.029612731,10.537378,0.01159668,-0.12330017,-0.030903626,77.6391345,12.8817899,5.27
152179047204,-0.63266146,-0.24352875,8.976896,-0.0033035278,-0.122932434,0.05887909,77.6391345,12.8817899,5.27
152179047225,-0.306163,-0.5800797,10.090639,0.16529235,-0.020191956,0.1694397,77.63918065,12.8818028,5.04
152179047247,0.3148941,-1.7610595,7.5681243,-0.2679184,0.11320648,0.19021149,77.63918065,12.8818028,5.04
152179047268,-0.117012024,0.47527617,10.868425,-0.013078308,0.16562042,0.086732484,77.63918065,12.8818028,5.04
152179047289,0.1801773,-0.98829496,11.495463,0.13437958,0.14411774,-0.07439728,77.63918065,12.8818028,5.04
152179047311,0.10013733,-0.071006775,9.367289,-0.064381406,-0.031309508,-0.1286438,77.63924016,12.88183429,5.28
152179047332,-0.63529664,-0.4652237,9.381406,0.12069702,-0.06270142,-0.10713653,77.63924016,12.88183429,5.28
152179047353,-0.5223541,-0.38386688,9.557037,-0.100177005,-0.011149597,0.042385865,77.63924016,12.88183429,5.28
152179047374,0.17527314,-0.33852386,9.445415,0.026133727,0.081077576,0.011849975,77.63924016,12.88183429,5.28
152179047396,0.41934052,-0.53186643,10.064316,0.0025604249,0.03636322,-0.11092682,77.63924016,12.88183429,5.28
152179047417,-0.05922394,-0.34701538,9.630979,-0.007946777,-0.08041382,-0.170549,77.63927892,12.88184978,5.35
152179047438,-0.46540374,-0.50290984,10.32358,-0.001473999,-0.09458923,-0.058392335,77.63927892,12.88184978,5.35
152179047459,-0.38500825,-0.4586441,9.443138,0.012084961,-0.062457275,0.008920288,77.63927892,12.88184978,5.35
152179047480,-0.21416016,-0.18945464,10.212791,0.011476135,-0.03252716,0.004527283,77.63927892,12.88184978,5.35
152179047502,-0.4609787,-1.2421722,9.582164,-0.037754823,-0.014329528,0.019184876,77.63927892,12.88184978,5.35
152179047523,-0.5246277,-0.5876144,9.709104,0.026744079,0.020243835,0.016981507,77.63932021,12.88186481,5.43
152179047544,-0.043908693,-1.2645477,11.857977,-0.022366334,0.07606659,0.02247467,77.63932021,12.88186481,5.43
152179047566,-0.026324462,-1.2600006,10.226669,0.029064942,0.042962648,-0.10261841,77.63932021,12.88186481,5.43
152179047587,-0.6495346,-0.7034302,9.944079,0.051667787,-0.0010131836,-0.07623138,77.63932021,12.88186481,5.43
152179047608,-0.051686097,-1.230809,10.292592,0.017826844,-0.02922821,-0.076963805,77.63932021,12.88186481,5.43
152179047629,0.078482054,-1.0070801,9.487526,0.0136734005,-0.06368103,-0.09015961,77.63938204,12.88189434,5.4
152179047651,-0.08590393,-0.98027956,9.497815,0.01330719,-0.12232208,-0.09198761,77.63938204,12.88189434,5.4
152179047672,-0.48466644,-1.118103,9.627149,0.0046325685,-0.14296722,0.0034225464,77.63938204,12.88189434,5.4
152179047693,-0.4577469,-0.76923215,9.719633,-0.011982727,-0.10546265,0.12154846,77.63938204,12.88189434,5.4
152179047714,-0.61615294,-0.9392395,9.9010105,-0.0029388429,-0.008709717,0.19570312,77.63942189,12.88190223,4.86
152179047736,-0.4076187,-0.33589172,9.863798,-0.015766907,0.07496643,0.19961548,77.63942189,12.88190223,4.86
152179047757,-0.029792786,-0.649234,10.538574,-0.057545472,0.08315277,0.08722229,77.63942189,12.88190223,4.86
152179047778,0.010049438,-0.6521057,8.970797,0.07988892,0.079611205,0.04287567,77.63942189,12.88190223,4.86
152179047799,0.29252014,0.0365509,10.27991,-0.053878784,0.045777895,-0.044467162,77.63942189,12.88190223,4.86
152179047821,-0.16941376,-1.0430924,8.539609,0.0026794435,-0.018359374,-0.06719055,77.63946022,12.88191562,4.22
152179047842,0.31046754,-1.0484741,9.298853,0.037861634,-0.0033370971,-0.010623169,77.63946022,12.88191562,4.22
152179047863,0.009327698,-0.69756776,8.312889,0.010987854,0.010710144,0.0011001587,77.63946022,12.88191562,4.22
152179047884,-0.93117064,0.21361847,10.599113,0.015141296,0.037097167,-0.019302368,77.63946022,12.88191562,4.22
152179047906,-0.5253479,0.40935212,12.201947,0.0051208497,-0.0013824463,-0.089544676,77.63946022,12.88191562,4.22
152179047927,0.7373474,-0.8595627,8.791095,-0.02480774,-0.051829528,-0.10518646,77.63951533,12.88194576,4.16
152179047948,-0.47078857,-0.38255158,9.02655,0.0023132325,-0.0558609,-0.042388916,77.63951533,12.88194576,4.16
152179047969,-0.59437865,-1.265384,11.48362,0.031388856,-0.054882813,-0.021743774,77.63951533,12.88194576,4.16
152179047991,-0.21128845,-0.80727994,9.975064,-0.011247253,-0.06795502,0.01991272,77.63951533,12.88194576,4.16
152179048012,-0.40187684,-0.89246523,9.551892,-0.0048980713,-0.010539246,0.0763443,77.63951533,12.88194576,4.16
152179048033,-0.0065826415,-0.846402,10.359949,0.02002716,0.051512145,0.089782715,77.63955566,12.88195483,4.38
152179048054,0.08554077,-0.88073885,9.6060915,0.0074417116,0.057984926,-0.016976928,77.63955566,12.88195483,4.38
152179048076,-0.0017959594,-0.66706085,9.882225,-0.011369323,0.014492798,-0.07293091,77.63955566,12.88195483,4.38
152179048097,-0.30664214,-0.7877747,9.998276,0.011351014,-0.050117493,-0.10579224,77.63955566,12.88195483,4.38
152179048118,-0.20076141,-1.0179672,9.791295,0.010372925,-0.059892274,-0.024061585,77.63957419,12.88195754,4.15
152179048139,-0.49627534,-0.90083617,9.711493,-0.008317566,-0.034849547,0.032618713,77.63957419,12.88195754,4.15
152179048161,-0.2584259,-0.88911283,9.575943,-0.01454773,0.018040467,0.08208923,77.63957419,12.88195754,4.15
152179048182,0.154216,-0.69218445,9.792372,-0.010762024,0.009243774,0.0062316894,77.63957419,12.88195754,4.15
152179048203,-0.6039505,-0.24508515,9.7738285,0.016238403,-0.006632996,-0.021377563,77.63957419,12.88195754,4.15
152179048224,0.025003051,-0.16468506,10.016939,0.016972352,-0.024095153,-0.018077087,77.63960981,12.88197184,3.95
152179048246,-0.32961273,0.08524628,9.677994,-0.010392761,-0.021528626,0.013439941,77.63960981,12.88197184,3.95
152179048267,-0.49567565,0.35276183,10.280748,0.013674927,0.0028915405,0.03506012,77.63960981,12.88197184,3.95
152179048288,-0.43860626,1.0487137,11.540332,0.011231994,0.0184021,0.032369994,77.63960981,12.88197184,3.95
152179048309,0.32745513,0.31651306,10.188266,-0.015158081,0.024635315,0.001473999,77.63960981,12.88197184,3.95
152179048331,-0.14883423,0.13944396,9.181485,0.011108398,0.024388123,-0.02858429,77.63964381,12.88198787,3.66
152179048352,0.25926057,0.26614228,9.518992,-7.4310304E-4,0.017181396,-0.040800475,77.63964381,12.88198787,3.66
152179048373,-0.17300263,0.48747864,9.9294815,0.011476135,-0.024954224,-0.09467926,77.63964381,12.88198787,3.66
152179048394,-0.38619995,0.49561158,10.15034,0.015994262,-0.06624603,-0.079525754,77.63964381,12.88198787,3.66
152179048416,-0.29611054,0.4704895,10.005095,0.0097640995,-0.08420257,-0.012457276,77.63968518,12.88200328,4.28
152179048437,-0.34612274,-0.26123506,9.757559,0.0014556885,-0.025933838,0.07292481,77.63968518,12.88200328,4.28
152179048458,-0.3269806,-0.4465622,9.765696,-0.008317566,0.034288026,0.08856201,77.63968518,12.88200328,4.28
152179048480,-0.41874847,0.26387176,9.846092,0.0019439697,0.078511044,0.045074463,77.63968518,12.88200328,4.28
152179048501,0.43465424,-0.023391724,10.061564,0.034321595,0.057987977,-0.05350647,77.63968518,12.88200328,4.28
152179048522,0.16031799,-0.24006042,9.866671,0.04311981,-0.066122435,-0.16931915,77.63972512,12.88201102,4.24
152179048543,-0.45762786,-0.043489076,9.61985,0.003656006,-0.1513977,-0.089422606,77.63972512,12.88201102,4.24
152179048564,-0.74991304,-0.20871277,9.376976,0.017826844,-0.08188324,0.09125366,77.63972512,12.88201102,4.24
152179048586,-0.5874405,0.07124786,9.54352,0.013674927,-0.007858276,0.12655792,77.63972512,12.88201102,4.24
152179048607,-0.47150725,-0.48963013,10.217936,-0.053631593,0.06776123,0.120449826,77.63972512,12.88201102,4.24
152179048629,-0.29994202,-0.4508667,8.868983,-0.021626282,0.14961548,0.12154846,77.63975353,12.88201876,3.76
152179048650,0.06257019,-0.13309936,10.22069,-0.023950195,0.18211365,-0.015760804,77.63975353,12.88201876,3.76
152179048671,0.3513855,-0.1064209,9.385234,-0.011245728,0.086817935,-0.19156341,77.63975353,12.88201876,3.76
152179048692,0.29730684,0.0145370485,10.144476,0.020271301,-0.052197266,-0.25998077,77.63975353,12.88201876,3.76
152179048714,-0.057310484,0.39032897,10.589064,0.034075927,-0.17840119,-0.22515564,77.63979051,12.88203533,4.27
152179048735,-0.571286,-0.36544496,9.817978,0.012940979,-0.24510345,-0.0652359,77.63979051,12.88203533,4.27
152179048756,-1.0305878,-0.22606048,9.946711,-0.01796112,-0.13001709,0.15502472,77.63979051,12.88203533,4.27
152179048777,-0.76462555,0.3202179,10.372992,0.044218443,0.05579071,0.19949341,77.63979051,12.88203533,4.27
152179048799,0.1796997,-0.25465393,9.547586,0.034565736,0.17380524,0.114831544,77.63979051,12.88203533,4.27
152179048820,0.5603973,-0.15499267,9.501163,-0.038612366,0.100379944,-0.0995636,77.63982667,12.88204715,4.14
152179048841,0.008374023,0.162294,10.035604,0.04824829,-0.009564209,-0.13145599,77.63982667,12.88204715,4.14
152179048862,-0.08674164,-0.04600067,10.090161,-0.03384552,-0.10008697,-0.114593506,77.63982667,12.88204715,4.14
152179048884,-0.43669128,0.13166504,9.783758,0.028579712,-0.14565429,-0.04483185,77.63982667,12.88204715,4.14
152179048905,-0.4599045,-0.29796448,9.372551,0.01978302,-0.12598571,0.05130615,77.63982667,12.88204715,4.14
152179048926,-0.4218567,-0.105464175,9.886766,0.0036605834,-0.0829834,0.11776123,77.63986572,12.8820604,4.65
152179048947,-0.45427856,-0.24305268,9.840587,0.026744079,0.035025023,0.17787018,77.63986572,12.8820604,4.65
152179048969,-0.09427643,-0.28624266,9.49973,-0.016015625,0.16561432,0.17065887,77.63986572,12.8820604,4.65
152179048990,0.42879334,0.021476746,10.202144,-0.008560181,0.1582901,-0.034329224,77.63986572,12.8820604,4.65
152179049011,-0.12263183,-0.0054443358,10.086571,0.0152633665,0.064704895,-0.09406586,77.63993464,12.88208018,5.23
152179049032,-0.0025115968,0.016690064,10.089561,0.006098938,-0.035462953,-0.12412415,77.63993464,12.88208018,5.23
152179049053,-0.42987213,-0.23228303,9.588382,-0.004527283,-0.0994751,-0.06340332,77.63993464,12.88208018,5.23
152179049075,-0.33846587,0.0018539429,10.735265,0.04152832,-0.0861557,-0.0054977415,77.63993464,12.88208018,5.23
152179049096,-0.10097961,-1.1005173,7.345468,-0.17018738,-0.031672668,0.05484314,77.63993464,12.88208018,5.23
152179049117,-0.4511673,0.65605164,9.268343,0.027363587,0.005583191,0.05203705,77.64000653,12.882121,6.21
152179049138,-0.015792847,-0.99882203,10.393684,0.11104431,0.07814636,0.02565155,77.64000653,12.882121,6.21
152179049160,0.12239075,-0.4032486,9.422444,-0.06047516,0.0037521361,-0.029803466,77.64000653,12.882121,6.21
152179049181,0.17407684,0.015971374,9.945514,0.10005188,-0.102897644,-0.122773744,77.64000653,12.882121,6.21
152179049202,-0.3962555,-1.2693344,10.197476,-0.13267365,-0.20527343,-0.044706725,77.64000653,12.882121,6.21
152179049224,-0.5533432,-0.2339569,8.65865,0.13120575,-0.13148347,0.16809845,77.64005457,12.88214572,6.12
152179049245,-1.162674,-0.98865205,10.702963,-0.078063965,0.040151976,0.22710419,77.64005457,12.88214572,6.12
152179049266,-0.16271515,-0.3792038,9.079908,0.04837189,0.2121704,0.25141907,77.64005457,12.88214572,6.12
152179049287,0.2733795,-0.9190216,10.585951,0.019540405,0.27142182,-0.008432006,77.64005457,12.88214572,6.12
152179049309,0.5764313,-0.26446533,9.67692,-0.0146698,0.11394195,-0.14110717,77.64005457,12.88214572,6.12
152179049330,-0.27684936,-0.54179686,9.939891,0.075006105,-0.0565979,-0.24641876,77.64009693,12.88215694,5.82
152179049351,-0.42257386,-0.29210204,9.810199,-0.05900421,-0.14834137,-0.08148346,77.64009693,12.88215694,5.82
152179049372,-0.6248871,-0.400618,9.317398,0.08221588,-0.050976563,0.031027222,77.64009693,12.88215694,5.82
152179049394,-0.35641176,-0.9186646,9.559313,-0.097250365,0.036120605,0.021865845,77.64009693,12.88215694,5.82
152179049415,0.5414947,-0.09002838,9.605135,0.04812927,0.029895019,-0.057781983,77.6401518,12.8821752,5.73
152179049436,-0.29766846,-0.3908066,10.447645,-0.001600647,0.0074142455,-0.08050384,77.6401518,12.8821752,5.73
152179049457,-0.15158539,-0.44237366,9.54998,0.021490479,-0.022021484,-0.07158508,77.6401518,12.8821752,5.73
152179049479,-0.120716855,-0.82653964,9.988704,0.014041138,0.009733582,-0.04165802,77.6401518,12.8821752,5.73
152179049500,0.1842453,-0.37286073,9.508944,0.005490112,0.013272095,-0.07170868,77.6401518,12.8821752,5.73
152179049521,-0.058029175,-0.7753342,9.235086,-0.0316452,-0.030574035,-0.12082062,77.64020713,12.88218548,5.62
152179049542,-0.29216462,-0.15020904,10.004259,0.0019485473,-0.07956085,-0.090768434,77.64020713,12.88218548,5.62
152179049564,-0.12682037,-0.6649078,9.760905,0.08074494,-0.114012145,-0.108724974,77.64020713,12.88218548,5.62
152179049585,-0.053359985,-0.5082962,9.490999,-0.05558624,-0.206987,-0.048127748,77.64020713,12.88218548,5.62
152179049606,-1.0610962,-0.60352784,10.979815,0.0598526,-0.18707123,0.042391967,77.64020713,12.88218548,5.62
152179049627,-0.22624055,-1.268254,10.708941,-0.039463807,-0.09727325,0.19192047,77.64025653,12.88220187,5.86
152179049648,-0.5436508,-0.6102295,10.453509,0.010131836,0.018774414,0.20963898,77.64025653,12.88220187,5.86
152179049670,0.31513214,-1.144548,10.041826,0.021127319,0.0975708,0.17346954,77.64025653,12.88220187,5.86
152179049691,-0.15254363,-0.93146515,9.813312,0.007077026,0.088163756,0.09454956,77.64025653,12.88220187,5.86
152179049712,-0.3119049,-1.6161712,8.099811,-0.11923675,0.13263702,0.10298157,77.64029404,12.88221389,5.48
152179049734,0.43273926,-1.0493133,12.637796,0.11654663,0.2055664,0.012217713,77.64029404,12.88221389,5.48
152179049755,0.4901703,-3.1340606,8.656138,0.13804932,0.17307281,-0.09162903,77.64029404,12.88221389,5.48
152179049776,0.6630524,-0.23299865,9.040428,-0.12241669,-0.039125063,-0.25008392,77.64029404,12.88221389,5.48
152179049797,-0.569136,-0.49369964,10.204656,0.17824097,-0.0889679,-0.20072326,77.64029404,12.88221389,5.48
152179049819,-0.62070006,0.2272583,11.115486,-0.0665802,-0.0981308,-0.050332643,77.64034694,12.88223698,5.48
152179049840,-1.0053451,0.69840395,11.676478,-0.007461548,-0.002232361,0.0067230226,77.64034694,12.88223698,5.48
152179049861,0.6297897,-0.32955018,10.287207,-0.015034485,0.019628907,-0.04776459,77.64034694,12.88223698,5.48
152179049882,-0.24107972,-0.09637146,9.54603,-0.020532226,-0.029348755,-0.12277527,77.64034694,12.88223698,5.48
152179049904,0.7024109,-0.81361693,9.075363,0.01599579,-0.11584473,-0.14794616,77.64034694,12.88223698,5.48
152179049925,-1.2309906,-0.0060424805,9.798353,-0.0395874,-0.1884201,-0.077819824,77.64037773,12.88224706,4.52
152179049946,-0.56674194,0.19447632,10.327887,0.058389284,-0.14162445,0.08599701,77.64037773,12.88224706,4.52
152179049967,0.29694825,-0.9589828,8.875323,-0.024076844,-0.045713805,0.1799469,77.64037773,12.88224706,4.52
152179049989,-0.97232664,-0.07388,10.424677,0.0552124,0.008999634,0.15514679,77.64037773,12.88224706,4.52
152179050010,0.060296632,-1.2353561,10.634526,-0.02761383,0.0052093505,0.08746338,77.64041893,12.88226131,4.64
152179050031,-0.5290558,-1.095018,9.874567,-0.033354186,0.005705261,0.12936707,77.64041893,12.88226131,4.64
152179050052,-0.15625305,-0.9581467,9.814626,0.0084198,0.07557831,0.1541687,77.64041893,12.88226131,4.64
152179050074,0.4077347,-0.23551178,9.419093,-0.011120605,0.08987427,0.08049774,77.64041893,12.88226131,4.64
152179050095,-0.28510436,0.04181671,10.592413,0.06962891,0.07057037,0.001954651,77.64041893,12.88226131,4.64
152179050116,-0.16893616,-0.6682556,10.379572,-0.036286928,0.08254395,0.0028121949,77.64046548,12.88227841,4.6
152179050137,0.17982025,-0.86757815,9.45618,-0.009907532,0.05615387,-0.07696228,77.64046548,12.88227841,4.6
152179050159,-0.21260376,-0.62901,10.262921,0.015507507,0.008143616,-0.13572998,77.64046548,12.88227841,4.6
152179050180,-0.052763365,-0.60939026,10.076044,0.0030456544,-0.034355164,-0.1318161,77.64046548,12.88227841,4.6
152179050201,-0.19609375,-0.89736634,9.885335,0.010496521,-0.093241885,-0.13328095,77.64046548,12.88227841,4.6
152179050222,-0.6693924,-0.43375856,9.709938,0.0117172245,-0.07919464,-0.0119720455,77.64049774,12.88228541,4.35
152179050244,-0.5979675,-0.28480682,9.973986,0.0014556885,-0.0037002563,0.07390137,77.64049774,12.88228541,4.35
152179050265,-0.050967406,-0.33708954,10.149503,-7.461548E-4,0.069107056,0.05936737,77.64049774,12.88228541,4.35
152179050286,-0.15948334,-0.29856262,10.3811245,0.015994262,0.081933595,-0.025532532,77.64049774,12.88228541,4.35
152179050307,0.033618163,-0.27702942,9.650721,-5.020142E-4,0.06592865,-0.096876524,77.64049774,12.88228541,4.35
152179050329,0.095472716,-0.08392487,10.022444,0.022102356,-0.0013839721,-0.2228363,77.64052235,12.88229043,3.85
152179050350,-0.45738983,-1.0201218,10.370595,0.011962891,-0.06489716,-0.20170441,77.64052235,12.88229043,3.85
152179050371,-1.0904114,-0.74530333,9.599391,0.01171875,-0.03436432,-0.06486817,77.64052235,12.88229043,3.85
152179050393,-0.29826814,-0.7717453,9.658735,0.046539307,0.06458588,0.020651245,77.64052235,12.88229043,3.85
152179050414,0.044146728,-0.87523496,8.984434,-0.06914826,0.0921936,-0.122651674,77.64053106,12.88229194,3.53
152179050435,-0.18221435,-0.8682953,10.015623,-0.10041962,0.08083038,-0.18508606,77.64053106,12.88229194,3.53
152179050456,-0.06867371,-1.0670197,9.321225,0.020759583,0.07570343,-0.27158356,77.64053106,12.88229194,3.53
152179050477,-0.377948,-1.4040467,10.360069,0.01013031,0.09170685,-0.25863343,77.64053106,12.88229194,3.53
152179050499,0.3232712,-0.98075867,9.161028,0.050567627,0.095005795,-0.33792573,77.64053106,12.88229194,3.53
152179050520,-0.23701172,-1.0896332,10.613231,0.18569641,0.041249085,-0.449469,77.64057545,12.88229209,3.22
152179050541,0.38607788,-1.4394623,9.175862,0.06498871,-0.042912293,-0.46987152,77.64057545,12.88229209,3.22
152179050563,-0.53898466,-1.7989852,9.806849,0.110557556,-0.06111908,-0.56919706,77.64057545,12.88229209,3.22
152179050584,-0.37794954,-0.25884247,10.085495,0.16846314,-0.06673889,-0.44286805,77.64057545,12.88229209,3.22
152179050605,-0.821936,0.08536377,8.928444,0.10408173,-0.07064514,-0.30188292,77.64057545,12.88229209,3.22
152179050626,-0.8731445,-0.45098573,10.203937,-0.07256927,0.021708678,-0.2666977,77.64060726,12.88228644,2.98
152179050647,0.23497467,-0.9661606,9.382002,-0.13243103,0.10184784,-0.23603363,77.64060726,12.88228644,2.98
152179050669,0.24095306,-0.48256987,10.173071,0.20474854,0.0704483,-0.53743285,77.64060726,12.88228644,2.98
152179050690,-0.45056763,-1.0907104,10.225237,0.1423172,-0.119880676,-0.65569305,77.64060726,12.88228644,2.98
152179050711,-1.1679367,-1.3991425,8.902362,0.09308777,-0.13698426,-0.49052125,77.64063844,12.8822659,3.49
152179050732,-0.39876556,-1.2253052,10.389742,0.03578644,-0.12378845,-0.30786896,77.64063844,12.8822659,3.49
152179050754,-0.85531616,-1.5107682,9.366809,0.0381073,-0.06599884,-0.2508133,77.64063844,12.8822659,3.49
152179050775,-0.3475586,-0.69876254,10.15967,0.05142212,-0.01481781,-0.16590881,77.64063844,12.8822659,3.49
152179050796,0.21894073,-1.0488327,10.448483,0.024423217,-0.043763734,-0.35417175,77.64063844,12.8822659,3.49
152179050818,-0.21368103,-1.4638703,9.903879,0.017951965,-0.06355896,-0.35636902,77.64063995,12.88224389,2.39
152179050839,-0.4773697,-1.0500305,9.945869,0.033465575,-0.088725284,-0.34317628,77.64063995,12.88224389,2.39
152179050861,-0.9853668,-1.1163117,9.461685,0.030288696,-0.050726317,-0.20048371,77.64063995,12.88224389,2.39
152179050881,-0.12598267,-1.0518234,10.093631,0.003288269,-0.060746767,-0.15050812,77.64063995,12.88224389,2.39
152179050903,-0.57248384,-1.0968109,10.011195,0.0142852785,-0.031672668,-0.15197602,77.64063995,12.88224389,2.39
152179050924,-0.9388245,-0.62183684,9.657659,0.016972352,-0.010537719,0.0014694214,77.64064646,12.88222662,1.97
152179050945,-0.95688933,-0.4264618,10.134786,0.006954956,0.02451172,0.09686737,77.64064646,12.88222662,1.97
152179050966,-0.6151962,-0.5324631,10.0394335,0.003289795,0.044917297,0.13229828,77.64064646,12.88222662,1.97
152179050988,-0.18664245,-0.6186035,9.699171,-6.210327E-4,-0.011030579,-8.5296633E-4,77.64064646,12.88222662,1.97
152179051009,-0.44458923,-0.8022522,9.84346,0.009884643,-0.012493896,-0.11422272,77.64064646,12.88222662,1.97
152179051030,-0.7369919,-1.0511078,9.686971,-0.008682251,-0.025445556,-0.09028015,77.64064772,12.88221129,1.58
152179051051,-0.3858444,-1.0336396,9.711733,0.009277344,-0.016893005,-0.076472476,77.64064772,12.88221129,1.58
152179051073,-0.84669954,-1.2129822,9.182681,-0.0068527223,0.03404083,-0.048495483,77.64064772,12.88221129,1.58
152179051094,-0.8678772,-0.80189514,10.018016,-0.012960816,-0.014576721,-0.047398377,77.64064772,12.88221129,1.58
152179051115,-0.6403183,-1.1559128,9.822882,0.0029266358,-0.054148864,-0.016609192,77.64064776,12.88220207,0.9
152179051136,-0.5387436,-1.200177,10.069101,0.008665467,-0.03301544,4.898071E-4,77.64064776,12.88220207,0.9
152179051158,-0.3504303,-0.4215561,9.787828,0.010496521,8.19397E-4,-0.0068359375,77.64064776,12.88220207,0.9
152179051179,-0.5522644,-0.27451628,9.660647,0.0081741335,0.038441468,-0.009890747,77.64064776,12.88220207,0.9
152179051200,-0.9980469,-0.2621933,9.887128,0.0030426024,0.018896485,-0.0010955811,77.64064776,12.88220207,0.9
152179051221,-0.7627136,-0.43423614,9.655981,0.0023132325,-0.01615448,0.018815612,77.64064727,12.88219796,0.24
152179051243,-0.66736144,-0.3240463,9.798716,0.0036514283,0.0020324707,0.033468626,77.64064727,12.88219796,0.24
152179051264,-0.8538803,-0.25872192,10.11672,-0.0015930176,0.0020339966,0.056066893,77.64064727,12.88219796,0.24
152179051286,-0.83342135,-0.09146576,10.089679,0.0050003054,-0.026177978,0.053869627,77.64064727,12.88219796,0.24
152179051307,-0.717131,0.2306076,8.878795,-0.0017181396,-0.0651474,0.06608124,77.64064727,12.88219796,0.24
152179051328,-0.5261841,0.015611267,8.24613,-0.0024536133,-0.11217956,0.12619476,77.64064917,12.88219542,0.43
152179051349,-0.906044,0.4006195,9.083379,-0.0053833006,-0.11645508,0.23773345,77.64064917,12.88219542,0.43
152179051370,-0.6208191,0.840181,10.103441,-0.017112732,-0.009318543,0.39985657,77.64064917,12.88219542,0.43
152179051391,-0.8216995,0.79962313,9.9101,0.01355133,0.0066818236,0.5092026,77.64064917,12.88219542,0.43
152179051413,-0.44650117,0.29401702,8.74958,-0.021633912,-0.020677185,0.5067581,77.6406515,12.88219299,0.41
152179051434,-1.0276016,-0.7281952,10.023282,-0.03995056,0.023536682,0.57578737,77.6406515,12.88219299,0.41
152179051455,-0.35904235,-0.81900483,10.356718,-0.041056823,0.048216246,0.57285464,77.6406515,12.88219299,0.41
152179051476,-0.029673766,-0.5827133,9.134466,-0.025544738,0.10868683,0.47084045,77.6406515,12.88219299,0.41
152179051498,0.21667023,-0.8186447,9.7890215,-0.00440979,0.08400879,0.251297,77.6406515,12.88219299,0.41
152179051519,-0.17264405,-0.2810959,9.802302,-0.0034271241,0.082299806,0.062423706,77.6406575,12.88218884,0.98
152179051540,-0.16044006,-0.20177308,9.613393,0.01013031,-0.09813233,-0.19241485,77.6406575,12.88218884,0.98
152179051562,-0.53132784,0.16588287,10.221405,0.05655365,-0.004559326,-0.24556427,77.6406575,12.88218884,0.98
152179051583,-0.018185426,0.030567933,8.688563,-0.011128235,0.03856201,-0.12619781,77.6406575,12.88218884,0.98
152179051604,-0.85519713,0.55567473,10.504954,0.015751649,0.09756927,-0.2013382,77.6406575,12.88218884,0.98
152179051625,0.056588747,-0.023388673,11.311816,0.037619017,0.01645813,-0.3197159,77.64066642,12.88218428,1.04
152179051647,-0.32147676,0.15236358,10.846649,0.059124757,-0.09434509,-0.5672394,77.64066642,12.88218428,1.04
152179051668,-1.6345383,0.30717927,10.863399,0.05912018,-0.10765991,-0.42759553,77.64066642,12.88218428,1.04
152179051689,-1.302414,0.19998017,11.257257,0.031510927,-0.16776581,-0.19901124,77.64066642,12.88218428,1.04
152179051711,-2.2427948,0.55016935,11.2547455,0.016116332,-0.11095886,0.03530121,77.64067565,12.88217545,1.66
152179051732,-1.5467193,0.17904511,11.498576,0.009036255,0.0049728393,0.2784195,77.64067565,12.88217545,1.66
152179051753,-0.37579346,0.7883774,11.4453335,-0.027497863,0.07692413,0.17994842,77.64067565,12.88217545,1.66
152179051774,0.846817,-0.27116698,8.909421,0.003895569,0.04345093,-0.02039795,77.64067565,12.88217545,1.66
152179051796,-0.16187438,-0.9994217,8.810122,-0.048257448,0.047850035,-0.0029312135,77.64067565,12.88217545,1.66
152179051817,0.25926057,-0.4487137,9.968364,-0.010758972,0.047972105,-0.091746524,77.64068718,12.88215704,2.6
152179051838,0.392305,-0.75607145,9.502241,0.03004303,0.024024963,-0.19461823,77.64068718,12.88215704,2.6
152179051859,0.24897003,-0.8668579,10.026629,0.05741272,-0.07076569,-0.33975524,77.64068718,12.88215704,2.6
152179051880,-1.2107681,-0.9411575,9.85674,0.042625427,-0.10411835,-0.19705506,77.64068718,12.88215704,2.6
152179051902,-0.8294708,-0.72376555,9.776102,-0.03983154,-0.015548706,0.0665741,77.64068718,12.88215704,2.6
152179051923,0.18723755,0.048036195,9.830058,-0.018087769,-0.011392212,-0.01685791,77.64069958,12.88213747,2.55
152179051944,-0.16690369,-0.39726716,9.10276,-7.385254E-4,-0.039247133,-0.062423706,77.64069958,12.88213747,2.55
152179051966,0.093199156,-1.146939,10.031056,0.026989747,-0.07858429,-0.11581268,77.64069958,12.88213747,2.55
152179051987,-0.66616213,-0.4332779,10.261006,-0.016011048,-0.071128845,-0.006594849,77.64069958,12.88213747,2.55
152179052008,-0.6702286,-0.93314207,9.143558,0.009153748,-0.005532837,0.16772461,77.64069958,12.88213747,2.55
152179052029,-0.005622864,-0.55040586,10.887445,-0.015769958,0.0302536,0.14402923,77.6407093,12.88211839,2.26
152179052050,0.2475357,-1.1589035,9.605494,-0.008927917,0.024269104,0.06596222,77.6407093,12.88211839,2.26
152179052072,0.39660797,-1.1360534,9.050715,0.0025619506,-0.05415039,-0.07805939,77.6407093,12.88211839,2.26
152179052093,-0.28235322,-0.84974825,9.82946,0.02577057,-0.09544678,-0.10713653,77.6407093,12.88211839,2.26
152179052114,-0.7892731,-0.67375946,9.744875,0.0028015138,-0.064654544,0.09345551,77.64071862,12.8821023,2.1
152179052135,-0.75374144,-0.68823546,9.202303,-0.04019928,-0.025808716,0.2863571,77.64071862,12.8821023,2.1
152179052157,-0.68542635,-0.7582245,10.143877,-0.09772797,0.07863617,0.38996428,77.64071862,12.8821023,2.1
152179052178,0.09726562,-0.76348877,10.336382,-0.04899292,0.12151642,0.3487915,77.64071862,12.8821023,2.1
152179052199,0.41407624,-0.35419616,10.064316,0.028823853,0.11064148,0.072315976,77.64071862,12.8821023,2.1
152179052220,-0.0029937744,0.09326172,9.4034195,0.072314456,0.1048996,-0.049598694,77.64072965,12.88208804,1.79
152179052242,0.45726928,0.0107070925,10.184677,0.08697815,0.08364258,-0.19718018,77.64072965,12.88208804,1.79
152179052263,0.07381745,-0.5961105,9.734227,0.0047546388,-0.015184021,-0.434935,77.64072965,12.88208804,1.79
152179052284,-0.43968505,-0.22809601,8.879988,0.033712767,-0.08799286,-0.4112259,77.64072965,12.88208804,1.79
152179052306,0.11963959,0.11156921,10.598991,0.05875702,-0.16581726,-0.37701416,77.64072965,12.88208804,1.79
152179052327,-1.2134033,-0.12556306,9.261523,0.005123901,-0.18915252,-0.13133088,77.64074216,12.88207517,1.97
152179052348,-1.0381286,0.1605011,8.650877,-0.14684907,-0.15994874,0.120083615,77.64074216,12.88207517,1.97
152179052369,-0.6228531,0.07675018,11.6435795,0.16956635,-0.04230652,0.2949112,77.64074216,12.88207517,1.97
152179052391,-0.5326446,0.2682953,9.846089,0.058876038,0.025125122,0.45202333,77.64074216,12.88207517,1.97
152179052412,-0.28845674,0.3209381,12.908785,-0.0067199706,0.15657806,0.29833525,77.64075282,12.8820584,2.32
152179052433,0.77982175,0.63798827,10.975504,-0.045687865,0.03624115,0.007209778,77.64075282,12.8820584,2.32
152179052454,0.61076355,0.066223145,8.867907,0.07720184,-0.011030579,-0.059613038,77.64075282,12.8820584,2.32
152179052475,-1.4246871,0.4840088,10.942006,-0.018087769,-0.033872984,0.025653075,77.64075282,12.8820584,2.32
152179052497,0.42005768,-0.44452515,8.946032,0.0030410767,0.023051452,0.113853455,77.64075282,12.8820584,2.32
152179052518,-1.3727615,0.5831909,10.503042,-0.0045303344,0.074725345,0.09467163,77.64076703,12.88203613,3.05
152179052539,0.76390684,0.026501466,10.13275,-0.002204895,0.06959534,-0.0070846556,77.64076703,12.88203613,3.05
152179052561,-0.99589384,0.37896425,10.017179,-0.0023330688,0.0910965,-0.050332643,77.64076703,12.88203613,3.05
152179052582,1.3343567,-0.31997833,9.067587,0.01941681,0.04161682,-0.18582305,77.64076703,12.88203613,3.05
152179052603,-1.0821564,0.3356537,10.425512,6.011963E-4,-0.03936615,-0.25081787,77.64076703,12.88203613,3.05
152179052624,0.39995727,-0.4037277,9.451036,0.025524903,-0.115478516,-0.18239745,77.64078516,12.8820112,3.22
152179052646,-1.6689942,0.43866578,10.659294,0.0063446043,-0.046458434,-0.0035446167,77.64078516,12.8820112,3.22
152179052667,0.31752473,-0.32763672,9.010279,-0.055833437,0.05590973,0.09711609,77.64078516,12.8820112,3.22
152179052688,0.17778473,0.21098785,9.725012,0.18153533,0.05920868,-0.13010712,77.64078516,12.8820112,3.22
152179052709,-0.30006105,-0.6771072,9.707787,-0.024435425,0.0191391,-0.15637664,77.64078516,12.8820112,3.22
152179052731,0.35102692,0.5298325,10.035128,-0.10665283,-0.12488556,-0.22528076,77.64080446,12.88198056,4.0
152179052752,0.10779724,-0.425383,10.604619,0.08099365,-0.33160248,-0.35062867,77.64080446,12.88198056,4.0
152179052773,-2.7461243,-0.3766907,9.884137,0.06572266,-0.25621948,0.22600861,77.64080446,12.88198056,4.0
152179052794,-1.1891143,-0.49405518,10.578654,-0.017356873,0.08950806,0.52973175,77.64080446,12.88198056,4.0
152179052816,0.010765076,-0.34534302,10.389264,-0.023219299,0.3413086,0.36295778,77.64082185,12.88194446,4.14
152179052837,2.599443,-1.020839,11.873767,-0.10078888,0.28999025,-0.22919922,77.64082185,12.88194446,4.14
152179052858,1.5238663,-0.791127,8.438873,0.35075074,-0.11878357,-0.614888,77.64082185,12.88194446,4.14
152179052879,-1.2954743,-2.3403625,12.494227,-0.059136964,-0.35738373,-0.2885666,77.64082185,12.88194446,4.14
152179052901,-1.8862641,-0.49561158,8.653745,-0.0066055297,-0.17497559,0.2383484,77.64082185,12.88194446,4.14
152179052922,-0.6863815,-1.3435119,11.697897,-0.020896912,0.05566864,0.3483017,77.64083656,12.88190806,4.01
152179052943,0.29491273,-0.5845062,8.369242,-0.009289551,0.1457077,0.24701996,77.64083656,12.88190806,4.01
152179052964,0.6458206,-1.8647858,7.4404707,-0.24703217,0.16012573,0.05595093,77.64083656,12.88190806,4.01
152179052986,0.16857453,0.3368515,12.397082,0.27560884,0.081445314,-0.18459931,77.64083656,12.88190806,4.01
152179053007,0.3773468,-1.2866806,8.863001,0.3743271,-0.09459381,-0.18618926,77.64083656,12.88190806,4.01
152179053028,-0.38464814,0.6589249,10.704636,-0.3093384,-0.13368073,-0.12913208,77.64085282,12.88187563,3.68
152179053049,-0.58181304,-0.52588195,7.22966,0.12167206,-0.088847354,0.03603668,77.64085282,12.88187563,3.68
152179053071,-0.4679184,0.054615784,10.229544,-0.04349365,-0.037535094,0.13071136,77.64085282,12.88187563,3.68
152179053092,-0.6330231,1.0350739,10.234326,-0.027372742,-0.049749754,0.104689024,77.64085282,12.88187563,3.68
152179053113,-0.26046294,0.27762908,10.756918,0.16528626,0.015965272,0.111651614,77.64086853,12.8818447,3.68
152179053134,-0.17431946,-0.05988159,9.08613,-0.03677826,0.12285614,0.1955841,77.64086853,12.8818447,3.68
152179053156,-0.17647247,1.0204788,10.448128,-0.009776306,0.13837585,0.020643616,77.64086853,12.8818447,3.68
152179053177,-0.31717223,0.023033142,10.5432415,-0.05546875,0.043573,-0.13585052,77.64086853,12.8818447,3.68
152179053198,0.13937989,0.6402618,9.065073,0.0041473387,-0.09006806,-0.1656601,77.64086853,12.8818447,3.68
152179053219,-0.9950546,0.17413788,9.723819,0.08159943,-0.10863952,-0.067437746,77.64088608,12.8818121,4.11
152179053241,-0.7032501,0.20464782,9.887489,-0.06426239,-0.054026794,0.07488251,77.64088608,12.8818121,4.11
152179053262,-0.31334075,0.16265564,9.421724,-6.149292E-4,0.020974731,0.07011261,77.64088608,12.8818121,4.11
152179053283,-0.2334198,0.12341156,9.725734,-0.03226013,0.09757233,0.0605896,77.64088608,12.8818121,4.11
152179053305,0.38943022,0.6568924,10.247246,-3.7384033E-4,0.048336793,-0.10176239,77.64088608,12.8818121,4.11
152179053326,-0.04750061,0.54371035,10.468582,0.052890014,-0.08286133,-0.17286988,77.6409049,12.88177742,4.41
152179053347,-0.34217376,-0.14554444,9.639353,-0.12998962,-0.19220276,-0.1040863,77.6409049,12.88177742,4.41
152179053368,-0.5943802,0.30514526,9.317279,0.07366028,-0.15408783,0.085020445,77.6409049,12.88177742,4.41
152179053389,-0.5967743,-0.2507065,10.14974,0.0901535,-0.04535675,0.16773376,77.6409049,12.88177742,4.41
152179053411,-0.58600616,0.5082947,10.040029,-0.03604736,0.027931213,0.1786026,77.64092698,12.88174011,4.86
152179053432,-0.112226866,-0.15595093,10.004137,0.026502991,0.123225406,0.14891204,77.64092698,12.88174011,4.86
152179053454,0.10528259,-0.67639005,9.7534895,-0.023341369,0.16024475,0.05362854,77.64092698,12.88174011,4.86
152179053474,0.14775543,-0.7088135,10.179174,-0.029937744,0.06824951,-0.11959686,77.64092698,12.88174011,4.86
152179053496,-0.3399002,-0.24125366,10.221046,-0.009414673,-0.04755249,-0.13401642,77.64092698,12.88174011,4.86
152179053517,-0.42651978,-1.2869186,10.932553,0.012091065,-0.01078186,-0.013064575,77.64096291,12.88169521,5.12
152179053538,0.18975067,-0.5026733,9.683497,0.059365846,-0.027156066,-0.049839783,77.64096291,12.88169521,5.12
152179053559,-0.64319456,-1.1502899,9.936419,0.026011657,-0.042175293,-0.05485077,77.64096291,12.88169521,5.12
152179053581,0.064245604,-1.0259812,9.854227,0.11812744,-0.07418518,-0.045689393,77.64096291,12.88169521,5.12
152179053602,-0.36945343,-1.4095504,9.415263,-0.122413635,-0.056347657,0.008059693,77.64096291,12.88169521,5.12
152179053623,-0.20746002,-0.17569122,8.700168,-0.0317688,-0.020069886,0.0962616,77.64099497,12.88166614,4.65
152179053644,0.16976929,-0.7735413,10.432811,0.041409303,0.050538637,0.08648529,77.64099497,12.88166614,4.65
152179053666,0.008493042,-1.1019531,10.136942,-0.09944458,0.0678833,-0.023208618,77.64099497,12.88166614,4.65
152179053687,-0.0693924,-1.0253861,9.254587,0.04421692,0.09304962,0.022109985,77.64099497,12.88166614,4.65
152179053708,0.45918122,-1.1045868,10.389981,-0.032011412,0.06934967,-0.12558594,77.64099497,12.88166614,4.65
152179053729,-0.055514526,-1.019284,9.421125,0.017338563,-0.027883912,-0.23383026,77.64101912,12.88163704,3.99
152179053751,-0.5216354,-1.2531784,10.499571,0.04311981,-3.5095214E-5,-0.09712219,77.64101912,12.88163704,3.99
152179053772,0.43058625,-1.2204025,9.908424,4.8217774E-4,-0.11107941,-0.21575013,77.64101912,12.88163704,3.99
152179053793,-1.1526229,-0.84484863,9.886648,-0.028593445,-0.11792298,-0.13646087,77.64101912,12.88163704,3.99
152179053814,-0.8529221,-1.012584,7.071376,-0.12266083,-0.04963379,0.088438414,77.64103544,12.88161523,3.3
152179053836,0.60059816,-1.4359909,12.418736,0.17299041,0.10441589,0.024926757,77.64103544,12.88161523,3.3
152179053857,0.094754025,-0.9181854,7.346669,0.06938477,-0.046943665,0.018934632,77.64103544,12.88161523,3.3
152179053878,0.10240936,-3.2471175,13.409006,0.023086548,0.049928285,-0.1087265,77.64103544,12.88161523,3.3
152179053900,-0.7672577,-0.20967102,6.0928283,-0.16407318,-0.0250885,0.086732484,77.64103544,12.88161523,3.3
152179053921,-0.3156128,-0.7421936,11.790858,0.16016845,0.1481491,0.12900086,77.64105377,12.8815951,2.61
152179053942,0.10791321,-0.023387145,9.968603,-0.05546417,0.1068512,0.05203552,77.64105377,12.8815951,2.61
152179053963,0.751825,0.99128723,9.158514,0.26693878,-0.08065949,-0.41281587,77.64105377,12.8815951,2.61
152179053985,-0.38309327,0.46390992,11.224956,-0.11728363,-0.06234131,-0.44909972,77.64105377,12.8815951,2.61
152179054006,0.51959836,1.0741974,7.862561,-0.023825074,-0.21957397,-0.4196518,77.64105377,12.8815951,2.61
152179054027,-1.6010392,0.24365082,11.232254,0.0029266358,-0.26905212,-0.20121308,77.64106347,12.88157445,2.09
152179054048,-0.645224,-0.5947952,7.9569564,-0.028471375,-0.16532287,0.26400298,77.64106347,12.88157445,2.09
152179054070,-0.8569916,0.14159545,12.252553,0.11361694,-0.026794434,0.43553162,77.64106347,12.88157445,2.09
152179054091,0.91752625,-0.47910157,8.541405,0.02185974,-0.020310974,0.29979706,77.64106347,12.88157445,2.09
152179054112,-0.55047,-0.7533188,9.0667515,-0.026271056,0.08486481,0.31824645,77.64107694,12.88155215,2.78
152179054133,0.36179048,-0.18143615,7.5634613,-0.018934632,0.07655945,0.2257599,77.64107694,12.88155215,2.78
152179054155,-0.45296326,0.06993103,8.879872,0.07353668,0.045646667,0.100047305,77.64107694,12.88155215,2.78
152179054176,-1.1223557,0.16708069,10.441069,-0.031036377,0.03868408,0.13083497,77.64107694,12.88155215,2.78
152179054197,-0.7613983,0.3501297,11.543318,-0.011854554,0.044056702,0.09577332,77.64107694,12.88155215,2.78
152179054218,-0.21379852,0.40504456,10.831337,0.0030471801,0.087184146,0.09002991,77.64109563,12.88152095,3.53
152179054240,1.3680954,-0.5260025,8.986948,-0.028347779,0.13287659,0.0487442,77.64109563,12.88152095,3.53
152179054261,0.41766816,-0.2966507,8.539609,0.033099364,0.04234924,-0.16664276,77.64109563,12.88152095,3.53
152179054282,-1.3938186,0.38937226,11.333588,-0.008439636,-0.014079285,-0.12595215,77.64109563,12.88152095,3.53
152179054303,0.50679934,-0.15104675,9.79357,-0.062429808,-0.047798157,-0.1007843,77.64109563,12.88152095,3.53
152179054325,0.082551576,-0.2982071,8.659732,0.09834137,-0.059159853,-0.11105347,77.64111583,12.88149521,3.69
152179054346,-0.8873779,-0.07208405,10.459251,-0.051193237,-0.07785187,-0.04837494,77.64111583,12.88149521,3.69
152179054367,0.6728592,-0.45541534,8.195401,0.03480835,-0.08066101,0.008796692,77.64111583,12.88149521,3.69
152179054388,-0.62787783,-0.09589233,10.688604,0.1502594,-0.02263794,0.034692384,77.64111583,12.88149521,3.69
152179054410,0.38583985,-0.7999817,8.121106,-0.21746063,0.03086548,0.10285492,77.64114334,12.88146475,3.96
152179054431,-0.52474517,0.057369996,10.001506,-0.07220459,0.07118225,0.043730162,77.64114334,12.88146475,3.96
152179054453,0.24514313,-0.32070008,9.787824,0.20988312,0.044917297,-0.07195129,77.64114334,12.88146475,3.96
152179054474,-0.043910217,-0.42346954,10.261007,-0.05290375,0.019996643,-0.08062897,77.64114334,12.88146475,3.96
152179054495,-0.5386261,0.62686,10.356839,0.043240357,-0.04938965,-0.110925294,77.64114334,12.88146475,3.96
152179054516,-0.31860656,-0.41150513,9.841906,0.037983704,-0.09935455,-0.11251678,77.64116508,12.8814354,3.98
152179054537,0.08912964,-0.5871414,8.737139,-0.042640686,-0.065878294,0.03933258,77.64116508,12.8814354,3.98
152179054558,-0.57930297,-0.026260376,10.601744,0.006954956,0.026222229,0.06938324,77.64116508,12.8814354,3.98
152179054580,-0.18114014,-0.030207824,9.946112,0.019657899,0.01632843,-0.037379455,77.64116508,12.8814354,3.98
152179054601,0.14966889,-0.16994782,9.4517565,0.00524292,-0.019094849,-0.037382506,77.64116508,12.8814354,3.98
152179054622,-0.058146667,-0.18825683,9.5355015,-0.034703065,-0.036193848,-0.023208618,77.64118944,12.88140581,4.34
152179054644,-0.5115875,0.2632721,10.151297,0.008297729,-0.038145445,-0.00879364,77.64118944,12.88140581,4.34
152179054665,-0.5637528,0.3784836,10.104635,0.00793457,-0.048895262,-0.016488647,77.64118944,12.88140581,4.34
152179054686,-0.24658051,-0.1902893,9.7083845,-0.010514831,-0.058303833,0.016374206,77.64118944,12.88140581,4.34
152179054708,-0.1485962,-0.46630096,9.298973,0.013917541,-0.033869933,0.05973663,77.64118944,12.88140581,4.34
152179054729,0.16833496,-0.5227722,9.224319,-0.019676208,-0.009683227,0.084042355,77.64120691,12.88137342,4.22
152179054750,-0.1535019,-0.5536407,9.369562,0.0031677247,0.048707582,0.095523074,77.64120691,12.88137342,4.22
152179054771,0.30065614,-0.5319824,9.45977,-0.013568115,0.11003113,0.07085266,77.64120691,12.88137342,4.22
152179054792,0.40390778,-0.54526216,9.844419,-0.0017211915,0.103070065,-0.042755127,77.64120691,12.88137342,4.22
152179054814,0.32530212,-0.46690065,9.767487,0.018803407,0.04527893,-0.110925294,77.64122613,12.88133927,4.6
152179054835,0.15242462,-0.5760132,9.59963,0.03334198,-0.025926208,-0.14232484,77.64122613,12.88133927,4.6
152179054856,-0.11964111,-0.38183442,9.835324,0.01611786,-0.050361633,-0.07403107,77.64122613,12.88133927,4.6
152179054877,-0.1933426,-1.3301086,9.532033,-0.018943787,-0.0664917,-0.07219849,77.64122613,12.88133927,4.6
152179054899,0.38715667,-1.7927643,8.745151,0.011601257,-0.06441192,-0.029560853,77.64122613,12.88133927,4.6
152179054920,-0.18963318,-1.1782868,8.547269,-0.010638428,-0.064898685,-0.013679504,77.64124743,12.88130459,4.71
152179054941,0.2190628,-0.31076813,10.54348,-0.023828125,-0.09959717,-0.025408935,77.64124743,12.88130459,4.71
152179054962,-0.95784914,-0.7137192,9.777658,-0.018455505,-0.059526064,0.06047058,77.64124743,12.88130459,4.71
152179054984,-0.27924043,-0.9693893,10.396322,-0.031153869,-0.02421875,0.1074997,77.64124743,12.88130459,4.71
152179055005,-0.15349884,-0.82534486,9.37327,0.026255798,0.012669372,0.09467163,77.64124743,12.88130459,4.71
152179055026,-0.13627167,-1.0385453,10.210879,-0.051072694,0.030378724,0.07866516,77.64126888,12.88126901,4.71
152179055047,-0.48036042,-0.9540802,9.561465,0.11543884,0.051513672,0.06828461,77.64126888,12.88126901,4.71
152179055069,-0.47449797,-1.2793839,9.605736,-0.055711366,0.067276,0.045199584,77.64126888,12.88126901,4.71
152179055090,-0.33128816,-0.75607145,9.222641,-0.039463807,0.11149903,0.06889649,77.64126888,12.88126901,4.71
152179055111,0.45774382,-0.8073975,9.767367,0.03651886,0.12579651,-0.0896698,77.64129076,12.8812369,4.12
152179055132,0.4622925,-1.2456421,9.62368,0.009889221,-0.05354309,-0.26841125,77.64129076,12.8812369,4.12
152179055154,-0.54293215,-0.76456606,10.500171,-0.086991884,-0.2569565,-0.2626648,77.64129076,12.8812369,4.12
152179055175,-0.971727,-0.49273986,9.486926,0.11727448,-0.3080246,-0.041175842,77.64129076,12.8812369,4.12
152179055196,-1.3368728,-0.83264005,10.305392,0.06535797,-0.13783875,0.33449706,77.64129076,12.8812369,4.12
152179055217,-0.0988266,-0.974057,8.696699,-0.010760498,0.082667544,0.5217835,77.64130959,12.88120752,3.85
152179055239,-0.42532653,0.6664642,11.215624,0.07512665,0.2595703,0.32826385,77.64130959,12.88120752,3.85
152179055260,0.79273987,0.5396408,11.604932,-0.037875365,0.22182159,0.010258484,77.64130959,12.88120752,3.85
152179055281,1.0546356,-0.72077787,8.56976,0.041648865,0.06519623,-0.21611938,77.64130959,12.88120752,3.85
152179055302,-1.097348,0.009870911,10.347867,3.5858154E-4,0.018041993,-0.12974243,77.64130959,12.88120752,3.85
152179055324,0.29515228,-0.19842224,8.755445,-0.030918885,-0.005528259,-0.10225372,77.64133009,12.88117869,3.91
152179055345,-1.1125427,0.32141417,11.229144,0.046296693,0.060308836,-0.03176117,77.64133009,12.88117869,3.91
152179055366,0.669989,-0.5596237,8.748624,-0.025410462,0.033428956,-0.17140198,77.64133009,12.88117869,3.91
152179055388,0.3107071,-0.40444642,10.282422,-0.049971007,-0.14284667,-0.3043274,77.64133009,12.88117869,3.91
152179055409,-1.6754547,0.05126343,9.907349,0.08282318,-0.18145294,-0.10506134,77.64133009,12.88117869,3.91
152179055430,-0.31764984,-0.15176697,10.294268,0.07487793,-0.1013092,0.10004578,77.64135117,12.88114895,3.94
152179055451,-0.28929138,-0.65593565,8.5019245,-0.06902466,0.025495911,0.14353791,77.64135117,12.88114895,3.94
152179055472,-0.5769119,-0.0390625,9.229939,-0.1547821,0.08474579,0.068525694,77.64135117,12.88114895,3.94
152179055494,0.6969086,-0.8676971,10.258496,0.06009979,0.029405212,-0.09125213,77.64135117,12.88114895,3.94
152179055515,0.3073578,-1.2614349,9.82384,0.16357727,-0.11242523,-0.21233368,77.64137406,12.88111744,4.27
152179055536,-0.50428927,-0.9479767,10.070417,-0.11141968,-0.1556778,-0.01526947,77.64137406,12.88111744,4.27
152179055557,-0.5901901,-0.63703156,9.378057,-0.03738861,-0.11902466,0.1264328,77.64137406,12.88111744,4.27
152179055579,-0.89790803,-0.69553375,10.791855,0.120578006,0.03380127,0.26351014,77.64137406,12.88111744,4.27
152179055600,0.08183594,-1.0490738,9.427587,0.034321595,0.09463501,0.20144959,77.64137406,12.88111744,4.27
152179055621,-0.044747926,-1.0647476,9.432732,-0.085638426,0.1318985,0.07903595,77.64139884,12.88108492,4.44
152179055642,0.25555268,-0.795195,9.280551,0.0019470215,0.094639584,-0.0671875,77.64139884,12.88108492,4.44
152179055664,0.40881044,-0.9540787,10.473727,0.026991272,0.018528748,-0.15491028,77.64139884,12.88108492,4.44
152179055685,-0.56279296,-1.0945358,9.666509,0.008906555,-0.035946656,-0.11948089,77.64139884,12.88108492,4.44
152179055706,-0.38907623,-1.1222931,9.925174,-0.055099487,-0.0011322021,-0.003541565,77.64139884,12.88108492,4.44
152179055728,0.22205201,-0.7268799,9.658137,0.016725158,-0.046821594,-0.11080627,77.64142072,12.881052,4.07
152179055749,-0.8651291,-0.18083802,9.417297,0.037257385,-0.11425781,-0.11532287,77.64142072,12.881052,4.07
152179055770,-0.9780655,-0.23096618,10.452792,-0.08710174,-0.061968993,0.10456848,77.64142072,12.881052,4.07
152179055791,-0.5271408,-0.21325989,9.150856,0.025157165,0.043693542,0.18996735,77.64142072,12.881052,4.07
152179055813,0.0010772705,-0.57158816,10.252749,-0.021136474,0.10917511,0.09076538,77.64143656,12.88102304,3.46
152179055834,0.69068754,-0.35263976,9.513489,-0.053633116,-0.0016220093,-0.13206176,77.64143656,12.88102304,3.46
152179055855,-1.2417572,0.029849242,10.056781,0.12033234,-0.025076294,-0.05252991,77.64143656,12.88102304,3.46
152179055876,0.088531494,-0.81062776,10.250239,-0.02272644,0.019137572,0.031881712,77.64143656,12.88102304,3.46
152179055898,-0.21571502,-0.94976807,9.192373,8.4228517E-4,0.009124756,-0.036524963,77.64143656,12.88102304,3.46
152179055919,-0.8033905,-0.80141604,11.303441,0.048002623,0.028303528,-0.032858275,77.64145152,12.88099288,3.58
152179055940,0.5734375,-0.8712875,9.01949,-0.008317566,-0.021658326,-0.10604248,77.64145152,12.88099288,3.58
152179055961,-1.1155365,-0.58498687,9.894188,-0.021755982,-0.072720334,-0.13169555,77.64145152,12.88099288,3.58
152179055983,-0.68590546,-0.92703855,9.740568,-0.0028137206,-0.011642456,0.074761964,77.64145152,12.88099288,3.58
152179056004,-0.14560394,-0.7380066,9.551416,-0.051309206,0.05175934,0.074150085,77.64145152,12.88099288,3.58
152179056025,-0.18448944,-0.9936783,10.085131,-0.022483826,0.052246094,-0.03713684,77.64146968,12.88096163,3.89
152179056046,-0.37986144,0.03667145,9.370996,0.02784729,0.031352233,-0.09638824,77.64146968,12.88096163,3.89
152179056068,0.06927185,-0.16193238,10.359471,0.030780029,-0.08322601,-0.23505707,77.64146968,12.88096163,3.89
152179056089,-0.2600998,-0.44452667,8.480026,0.089178465,-0.12268829,-0.12069702,77.64146968,12.88096163,3.89
152179056110,-0.96119994,0.57493746,10.614906,-0.021258544,-0.09739838,0.012580872,77.64148639,12.88092865,3.86
152179056131,-0.0792038,-0.5121231,10.037397,-6.225586E-4,-0.076264955,0.06815948,77.64148639,12.88092865,3.86
152179056153,-0.7404617,-0.6999588,10.134905,0.0041412353,-0.05585785,0.123623654,77.64148639,12.88092865,3.86
152179056174,-0.6134033,-1.0494308,9.827669,-0.06340637,-0.027883912,0.15685883,77.64148639,12.88092865,3.86
152179056195,-0.49519652,-1.0804183,8.745512,0.010494995,0.0434494,0.20046845,77.64148639,12.88092865,3.86
152179056216,-0.019262696,-1.0678574,9.919191,0.025035094,0.060307313,0.13205567,77.64150191,12.88089681,3.57
152179056238,-0.26859587,-0.9296707,9.819295,0.016848754,0.06201782,0.07255554,77.64150191,12.88089681,3.57
152179056259,0.051919557,-0.937088,9.977221,-0.011004639,0.036607362,0.015640259,77.64150191,12.88089681,3.57
152179056280,-0.51493376,-0.9256058,9.3914585,-9.872436E-4,0.016574096,1.2512207E-4,77.64150191,12.88089681,3.57
152179056301,-0.45152742,-0.9489334,9.795242,-0.011979675,-0.011521911,-0.0057373047,77.64150191,12.88089681,3.57
152179056323,-0.8242111,-1.4819336,10.213748,-0.017845154,0.053585816,0.09369202,77.6415197,12.88087082,3.21
152179056344,-0.19106598,-1.6981246,9.262243,-0.008929444,0.103070065,0.10114746,77.6415197,12.88087082,3.21
152179056365,0.4944748,-1.6578095,10.013349,0.03639374,-0.02459259,-0.23591308,77.6415197,12.88087082,3.21
152179056386,-0.75314176,-2.0145798,9.86906,0.065229796,-0.08408356,-0.27695617,77.6415197,12.88087082,3.21
152179056408,-1.1078781,-1.5764511,9.70252,0.0054885866,-0.008222962,-0.010874939,77.6415197,12.88087082,3.21
152179056429,-0.5681778,-1.5196228,10.272494,0.026744079,0.049311828,0.071582034,77.64153735,12.88084849,2.69
152179056450,-0.5537033,-2.0004609,10.143399,0.003656006,0.027322387,-0.037867736,77.64153735,12.88084849,2.69
152179056471,-0.94265443,-2.7680755,9.60298,-0.028230285,-0.027275085,-0.024917603,77.64153735,12.88084849,2.69
152179056493,-0.6936798,-2.0413756,9.622841,-0.005630493,-0.059527587,-0.0149002075,77.64153735,12.88084849,2.69
152179056514,-0.80590516,-2.0726044,9.859613,0.008058166,-0.09336853,0.015519714,77.6415488,12.88083517,1.26
152179056535,-0.45942384,-0.50530547,9.862961,0.020149231,-0.073330685,0.034208678,77.6415488,12.88083517,1.26
152179056556,-0.341098,-0.26434785,10.080467,0.029800415,-0.04181061,0.06718292,77.6415488,12.88083517,1.26
152179056578,-0.19489746,-0.4205963,9.8354435,-0.015029907,-0.0663681,0.069625854,77.6415488,12.88083517,1.26
152179056599,0.17228393,-0.1589447,9.514325,0.005004883,-0.10766144,-1.5258789E-6,77.6415488,12.88083517,1.26
152179056620,0.19991608,-0.120420836,9.850639,-0.005995178,-0.09019013,-0.005003357,77.64155444,12.88082988,0.6
152179056642,0.392659,-0.54478455,9.486926,-0.004043579,-0.03802185,-0.008547974,77.64155444,12.88082988,0.6
152179056663,0.21116333,-0.277507,10.092909,-0.0017196655,-0.010783386,-0.0037841797,77.64155444,12.88082988,0.6
152179056684,0.4292694,-0.29234162,9.915843,-0.002330017,0.026223755,-0.005004883,77.64155444,12.88082988,0.6
152179056705,0.2805603,-0.30981293,9.497461,-0.0026992797,0.015719604,-0.003540039,77.64155444,12.88082988,0.6
152179056727,-0.036489867,-0.14111634,9.759112,7.247925E-4,-0.008337403,-0.006715393,77.64155938,12.88083878,0.0
152179056748,0.42795563,-0.46941072,9.534546,-1.3580322E-4,-0.010289001,-0.01013794,77.64155938,12.88083878,0.0
152179056769,-0.005505371,-0.05616913,9.8615265,-1.3122559E-4,-0.021044921,-0.0100158695,77.64155938,12.88083878,0.0
152179056790,0.44901124,-0.44583893,9.399234,6.0272217E-4,-0.023362732,-0.015751649,77.64155938,12.88083878,0.0
152179056812,0.13914184,-0.15116882,9.67034,0.0036575317,-0.0022354126,-0.010505676,77.64156104,12.88084391,0.0
