timestamp,accx,accy,accz,gyrx,gyry,gyrz,longitude,latitude,speed
152178839505,0.20721893,-0.94079745,10.118872,-2.883911E-4,-3.1280518E-4,-6.1035157E-6,77.66524663,12.84188013,0.0
152178839526,0.09308014,-0.8913864,9.638875,-6.5307616E-4,0.0023727417,-6.1035157E-6,77.66524663,12.84188013,0.0
152178839547,0.19094697,-1.0173676,10.012036,-5.3253176E-4,0.018133545,0.0030441284,77.66524897,12.84188015,0.0
152178839568,0.08673553,-1.0014572,9.987628,-6.5307616E-4,0.002496338,6.0272217E-4,77.66524897,12.84188015,0.0
152178839589,0.012202454,-0.9975082,9.758394,0.0010528564,0.005178833,1.1138916E-4,77.66524897,12.84188015,0.0
152178839610,0.19441529,-1.0446488,9.782443,0.0044815065,0.012019348,-3.7384033E-4,77.66524897,12.84188015,0.0
152178839632,-0.0011962891,-0.88265073,10.044576,0.0032608032,0.0022521974,0.004512024,77.66525138,12.84188016,0.0
152178839653,0.14368744,-1.2097518,9.7471485,0.0030136108,-0.0050765993,0.010627747,77.66525138,12.84188016,0.0
152178839674,0.14034119,-0.93601227,10.107748,0.0015487671,-0.0010467529,0.0072036744,77.66525138,12.84188016,0.0
152178839695,0.05910187,-1.0691712,9.660048,-1.6479492E-4,0.023509216,0.010871887,77.66525138,12.84188016,0.0
152178839717,-0.10277405,-0.91124725,9.802663,0.0053344727,0.03670044,0.029922485,77.66525138,12.84188016,0.0
152178839738,-0.13579254,-1.0010955,9.934748,0.00533905,0.053559877,0.0657074,77.66525385,12.8418802,0.0
152178839759,0.10791626,-1.0471588,9.811038,-0.0010162353,0.07665253,0.02771759,77.66525385,12.8418802,0.0
152178839780,-0.5913849,-0.9976257,9.851237,0.0037445067,0.07970581,-0.010392761,77.66525385,12.8418802,0.0
152178839802,-0.61950225,-1.0397415,9.930201,-0.0090789795,0.039881896,-0.008557129,77.66525385,12.8418802,0.0
152178839823,-0.67406005,-0.75331724,10.014427,-0.0028472901,0.0051864623,0.0025588989,77.66525385,12.8418802,0.0
152178839844,-0.68973386,-1.0186828,9.711255,0.0083877565,-0.041596986,-0.007217407,77.66525407,12.84188014,0.0
152178839865,-0.35378113,-1.1556733,9.667468,0.002279663,-0.023756409,-0.0031784058,77.66525407,12.84188014,0.0
152178839887,-0.36634064,-1.1120056,9.968607,0.002645874,-0.0431839,-0.0042831423,77.66525407,12.84188014,0.0
152178839908,-0.3722046,-1.066658,9.90328,-4.272461E-5,-0.012522888,-0.005014038,77.66525407,12.84188014,0.0
152178839929,-0.37974396,-0.91184694,9.807208,0.0039901733,-0.005317688,-0.0015914917,77.66525407,12.84188014,0.0
152178839950,-0.2579468,-1.1007583,9.731357,6.942749E-4,0.0089675905,-0.001965332,77.66525383,12.8418801,0.0
152178839972,-0.36741942,-1.0205978,9.929003,-0.0012634278,0.01800995,-4.943848E-4,77.66525383,12.8418801,0.0
152178839993,-0.4439911,-0.9567078,10.034645,-4.272461E-5,0.008480835,-0.0015975952,77.66525383,12.8418801,0.0
152178840014,-0.45188445,-0.93720853,9.813189,-6.5307616E-4,0.006767273,1.1749267E-4,77.66525383,12.8418801,0.0
152178840035,-0.37352142,-0.99954224,9.631574,-5.279541E-4,0.007986451,-0.0013504028,77.66525337,12.84188003,0.0
152178840057,-0.46397096,-0.91651,9.953769,-2.8533937E-4,-5.5847166E-4,6.0577394E-4,77.66525337,12.84188003,0.0
152178840078,-0.4523651,-0.96149445,9.788904,0.0013031006,-0.0038543702,-0.002203369,77.66525337,12.84188003,0.0
152178840100,-0.44721833,-0.9917633,9.898016,5.6762696E-4,-0.010688782,-1.3275146E-4,77.66525337,12.84188003,0.0
152178840121,-0.44662324,-0.912442,9.755162,-7.751465E-4,-0.0023880005,-9.155274E-6,77.66525337,12.84188003,0.0
152178840142,-0.33176726,-1.1210953,9.788305,-0.0012619018,-0.0023880005,-0.0011093139,77.66525337,12.84188003,0.0
152178840163,-0.45523375,-0.88348544,9.785316,-0.0016296387,-0.016427612,0.0010879517,77.66525337,12.84188003,0.0
152178840184,-0.45033112,-1.0762314,9.607765,-0.0013809204,-0.012640381,-0.0011032105,77.66525337,12.84188003,0.0
152178840206,-0.35964203,-1.0161712,9.7979965,0.0020370483,-0.0240036,-7.415771E-4,77.66525337,12.84188003,0.0
152178840227,-0.24454956,-0.99918365,10.048762,-7.751465E-4,-0.02339325,-0.0013504028,77.66525337,12.84188003,0.0
152178840248,-0.26548308,-1.0767105,9.779691,-5.2948E-4,-0.005682373,-4.943848E-4,77.66525337,12.84188003,0.0
152178840269,-0.38213652,-0.9580246,9.889402,-7.766724E-4,0.006031799,2.3498535E-4,77.66525337,12.84188003,0.0
152178840290,-0.1959732,-1.0149765,9.590538,3.2958985E-4,0.0018814087,-6.1798096E-4,77.66525337,12.84188003,0.0
152178840312,-0.31274414,-0.88217163,10.007009,4.470825E-4,-0.0011657715,-7.415771E-4,77.66525337,12.84188003,0.0
152178840333,-0.31370085,-1.1288742,9.805893,9.3536376E-4,-3.1280518E-4,-0.0013473511,77.66525336,12.84187988,0.0
152178840354,-0.22193451,-1.08078,9.797995,6.9122313E-4,0.0010284424,-9.82666E-4,77.66525336,12.84187988,0.0
152178840375,-0.34887543,-0.9207001,9.74308,8.0871585E-5,-6.8054197E-4,-6.1035157E-6,77.66525336,12.84187988,0.0
152178840397,-0.2841507,-0.95419616,9.963458,-6.5307616E-4,0.006034851,-0.002206421,77.66525336,12.84187988,0.0
152178840418,-0.31345978,-0.9311081,9.913211,0.0011779785,0.003717041,-0.002206421,77.66525336,12.84187988,0.0
152178840440,-0.35545653,-1.0135406,9.826712,0.0014236451,-0.008612061,-0.0014709473,77.66525336,12.84187988,0.0
152178840461,-0.27469635,-0.8772705,10.015505,0.0016662597,-0.02118988,-9.857178E-4,77.66525336,12.84187988,0.0
152178840482,-0.25004882,-1.0826905,9.67632,8.163452E-4,-0.0054412843,-0.0011062622,77.66525336,12.84187988,0.0
152178840503,-0.2999405,-0.93409884,9.820607,8.1481936E-4,0.008724975,-0.0013473511,77.66525336,12.84187988,0.0
152178840524,-0.1556549,-1.0637894,9.861887,0.0014221191,0.009576416,6.0272217E-4,77.66525336,12.84187988,0.0
152178840545,-0.29108888,-0.8745163,9.738771,6.9274905E-4,0.00554657,-2.5024413E-4,77.66525332,12.84187969,0.0
152178840567,-0.18568572,-1.027536,9.9987545,9.384155E-4,-0.0032440186,-0.003919983,77.66525332,12.84187969,0.0
152178840588,-0.36933288,-0.8789444,9.893349,0.0011825562,0.0027389526,0.0035354614,77.66525332,12.84187969,0.0
152178840609,-0.12694092,-0.9826706,9.782562,-3.6621095E-5,0.008480835,-0.0040344237,77.66525332,12.84187969,0.0
152178840631,-0.34887543,-0.9336197,9.846567,-0.001751709,0.014710998,-0.0013534545,77.66525332,12.84187969,0.0
152178840652,-0.34564513,-1.1739807,9.752533,-6.5307616E-4,0.01300354,-0.0028182983,77.66525331,12.84187959,0.0
152178840673,-0.45332032,-0.79220426,10.086929,-0.0034591674,0.026686097,-4.943848E-4,77.66525331,12.84187959,0.0
152178840694,-0.48981017,-0.78742063,10.017897,-6.500244E-4,0.028517151,-0.0011062622,77.66525331,12.84187959,0.0
152178840715,-0.42377168,-0.64504397,9.800865,0.00521698,0.0045730593,-0.014668274,77.66525331,12.84187959,0.0
152178840737,-0.55406034,-1.1359329,9.762222,-0.007003784,-0.02815857,-0.025663758,77.66525331,12.84187959,0.0
152178840758,-0.3550949,-1.3258026,10.243898,-0.007984924,-0.013136292,-0.0052612303,77.66525331,12.84187959,0.0
152178840779,-0.5060822,-0.8743973,9.984876,5.7067873E-4,-0.013130188,-6.1798096E-4,77.66525331,12.84187959,0.0
152178840800,-0.35437775,-0.97358245,9.851117,0.0034973144,-0.017770385,-0.0012268067,77.66525331,12.84187959,0.0
152178840822,-0.2678772,-1.0646255,9.90053,3.250122E-4,0.005062866,-0.0033050538,77.66525331,12.84187959,0.0
152178840843,-0.39876556,-0.37250215,9.43943,0.011566162,0.02338562,-0.002571106,77.66525331,12.84187959,0.0
152178840864,0.08434296,-0.42669982,9.260091,0.033309937,0.027420044,-0.04068909,77.66525331,12.84187959,0.0
152178840885,-0.76977235,0.37166747,9.547824,0.026475525,0.04244232,-0.073797606,77.66525331,12.84187959,0.0
152178840906,-0.4103729,0.44273376,10.024595,0.022070313,-0.013139343,-0.11020355,77.66525331,12.84187959,0.0
152178840928,-0.5944977,0.6562912,9.3569975,0.022071838,-0.024980163,-0.0995758,77.66525331,12.84187959,0.0
152178840949,-0.8408386,0.9270401,10.121384,2.0141601E-4,0.016297912,-0.018086243,77.66525339,12.84187948,0.0
152178840970,-0.27338257,0.92763823,9.999832,-0.0048065186,5.7983398E-5,0.003036499,77.66525339,12.84187948,0.0
152178840991,-0.43370208,0.764209,9.502245,-0.004560852,-0.035609435,-0.081739806,77.66525339,12.84187948,0.0
152178841013,-0.41635284,0.49669188,9.685056,0.003869629,-0.035121154,-0.018211365,77.66525339,12.84187948,0.0
152178841034,-0.9150177,0.3113678,9.725492,-0.020440673,0.05735016,0.16258545,77.66525339,12.84187948,0.0
152178841055,0.13602905,0.44296876,9.869061,-0.015310669,0.032914735,0.0073181153,77.66525339,12.84187948,0.0
152178841077,-0.16546631,0.12041931,9.871218,-0.008714294,-0.03499756,-0.1491745,77.66525339,12.84187948,0.0
152178841098,-0.19369812,-0.8956955,9.499971,-0.011643982,-0.09156189,-0.07233276,77.66525339,12.84187948,0.0
152178841119,-0.875177,-0.8810959,8.994486,-0.023982238,-0.10939789,-0.02408142,77.66525339,12.84187948,0.0
152178841140,-0.8130814,0.20213623,8.633646,0.035998534,0.053074647,0.30797118,77.66525339,12.84187948,0.0
152178841161,0.15936127,0.20560455,9.789142,0.037341308,0.05417633,0.049584962,77.66525339,12.84187948,0.0
152178841183,-0.55094606,0.6410996,10.2135105,-0.022883605,0.04916229,0.042370606,77.66525339,12.84187948,0.0
152178841204,0.39637145,0.36173552,9.389542,0.0077789305,0.046595763,-0.042889405,77.66525339,12.84187948,0.0
152178841226,-0.35342255,0.5646454,10.508543,0.025979614,-0.06321716,-0.14026031,77.66525339,12.84187948,0.0
152178841246,-1.1863601,0.38841552,9.620567,-0.005052185,-0.029501343,0.061557006,77.66527741,12.84187991,2.85
152178841268,0.04713745,0.2406601,9.989779,-0.0103057865,0.05758972,0.07634125,77.66527741,12.84187991,2.85
152178841289,-0.17611389,0.20105743,9.938812,0.005703735,0.030714417,-0.07843933,77.66527741,12.84187991,2.85
152178841311,-0.20111999,-0.04898987,9.80027,0.013517762,-0.041841127,-0.07147674,77.66527741,12.84187991,2.85
152178841332,-0.77228546,0.44524232,9.919667,-0.007858276,-0.021073913,0.034799196,77.66532207,12.84187737,4.76
152178841353,-0.39708862,0.1551178,9.511813,0.0013000488,-0.0032455444,0.0018218994,77.66532207,12.84187737,4.76
152178841374,-0.35485536,0.45266265,9.844416,0.0113220215,-0.0038528442,-0.0042831423,77.66532207,12.84187737,4.76
152178841395,-0.23497772,0.21625213,9.827906,-0.016656494,-0.051612854,-0.028596496,77.66532207,12.84187737,4.76
152178841417,-0.7469223,0.4308899,9.602861,0.00655365,-0.06456604,0.031259157,77.66532207,12.84187737,4.76
152178841438,-0.62309265,0.10354767,9.818814,-0.008229065,-0.009713745,0.08855133,77.66540844,12.84186708,5.49
152178841459,-0.3738846,0.009632873,9.8074465,6.9274905E-4,0.0622345,0.06534119,77.66540844,12.84186708,5.49
152178841481,-0.12849732,-0.095056154,9.771556,-0.0032180785,0.07701874,0.010865783,77.66540844,12.84186708,5.49
152178841501,0.060179137,-0.19268036,9.792134,-0.0039520264,0.0095855715,-0.05241699,77.66540844,12.84186708,5.49
152178841523,-0.77108765,-0.2838455,10.332072,0.0035003661,-0.059924316,-0.025297547,77.66540844,12.84186708,5.49
152178841544,-0.51026917,-0.3754944,9.893471,-0.015802002,0.0040878295,0.06790771,77.66549554,12.84185858,7.61
152178841565,-0.27026978,-0.19399719,9.869181,-0.011158752,0.12075043,0.044696044,77.66549554,12.84185858,7.61
152178841586,0.058383178,-0.14733735,10.183119,0.0032577515,0.09692993,-0.067811586,77.66549554,12.84185858,7.61
152178841608,0.031105042,-0.42490387,9.690439,0.004232788,-0.06431732,-0.12254181,77.66549554,12.84185858,7.61
152178841629,-0.51972353,-0.46235505,9.670698,0.007293701,-0.10536651,-0.034579467,77.66557127,12.84185815,8.24
152178841650,-0.2651245,-0.52097625,9.714604,-0.01164856,-0.07519074,0.025637817,77.66557127,12.84185815,8.24
152178841671,-0.5416168,-0.41976166,9.72621,0.012057495,-0.040863037,0.016360473,77.66557127,12.84185815,8.24
152178841693,-0.25076753,-0.41234285,10.481863,0.004232788,0.009091186,0.05520172,77.66557127,12.84185815,8.24
152178841714,-0.15972137,-0.776889,9.696539,-0.010179138,0.031936646,0.01159668,77.66557127,12.84185815,8.24
152178841735,-0.27589417,-0.69158477,9.584195,0.007775879,0.0060409545,-0.025175476,77.66566039,12.84186631,8.72
152178841756,-0.3543747,-0.9991806,9.758635,0.0031311035,-0.026933288,-0.0031845092,77.66566039,12.84186631,8.72
152178841778,-0.48096007,-0.6658615,9.695343,-0.014822388,-0.01728363,0.021606445,77.66566039,12.84186631,8.72
152178841799,-0.31848603,-0.81589204,10.022443,0.009367371,0.028031921,0.03321228,77.66566039,12.84186631,8.72
152178841820,-0.39924318,-0.85250396,10.094109,-0.021173095,0.061257936,0.011231994,77.66566039,12.84186631,8.72
152178841841,0.10779419,-0.8011764,9.617935,-0.0034591674,0.025706481,-0.053271484,77.66573607,12.84186635,8.65
152178841863,-0.15206604,-0.63655394,9.641624,0.006556702,-0.03658905,-0.039711,77.66573607,12.84186635,8.65
152178841884,-0.30185547,-0.9216553,10.368086,0.014373779,-0.065049745,-0.017358398,77.66573607,12.84186635,8.65
152178841905,-0.69224393,-0.7834686,10.068263,-0.0076141357,0.0028671264,0.054711916,77.66573607,12.84186635,8.65
152178841926,0.25447387,-0.64851534,10.118991,0.024151612,0.0794632,0.014039611,77.66573607,12.84186635,8.65
152178841948,0.018545533,-0.32297212,9.370399,-0.061605833,-0.025961304,-0.078685,77.66582494,12.84186459,9.07
152178841969,-0.41204375,-0.8879135,10.338056,0.059454344,-0.031948853,0.009391785,77.66582494,12.84186459,9.07
152178841990,-0.11797027,-0.8766724,9.86631,-0.014454651,-0.021200562,-0.005381775,77.66582494,12.84186459,9.07
152178842011,-0.37160492,-0.58450776,10.246529,-0.0022384643,-0.06260834,3.6010743E-4,77.66582494,12.84186459,9.07
152178842032,-0.17970428,-0.63523257,9.430937,0.012910461,-0.020211792,0.039437868,77.66591988,12.84186259,9.31
152178842054,-0.15362243,-0.62159574,10.516081,0.010466004,-0.0025100708,0.031259157,77.66591988,12.84186259,9.31
152178842075,-0.27613372,-0.7631302,9.432851,-1.6784668E-4,0.017518615,0.023809815,77.66591988,12.84186259,9.31
152178842096,-0.38955384,-0.87858427,9.909981,0.0075332643,0.061624147,0.037973024,77.66591988,12.84186259,9.31
152178842118,0.32745665,-1.0453644,10.125214,-0.008592224,0.08068695,-0.012593078,77.66591988,12.84186259,9.31
152178842139,-0.16379242,-0.716832,9.503317,0.0052124024,-0.0536911,-0.08149414,77.66600919,12.84185731,9.21
152178842160,-0.39948273,-1.0384247,9.975064,0.0076553347,-0.09021759,0.014282227,77.66600919,12.84185731,9.21
152178842181,-0.3749588,-1.3913635,10.146631,-0.0067565916,-0.021809388,0.05898895,77.66600919,12.84185731,9.21
152178842203,-0.2411972,-1.07659,9.67979,-0.026182557,0.052459717,0.04359741,77.66600919,12.84185731,9.21
152178842224,0.031703185,-0.9467804,9.668902,0.032946777,0.09094544,0.020384217,77.66600919,12.84185731,9.21
152178842245,-0.18556519,-1.048117,10.049124,-0.0022399903,0.013980103,-0.052661132,77.6661036,12.84185201,9.45
152178842266,-0.09990387,-0.92560273,9.884855,0.008876038,-0.040127564,-0.024928283,77.6661036,12.84185201,9.45
152178842288,-0.22624207,-1.353679,9.600591,-0.013961792,-0.035852052,0.0071990965,77.6661036,12.84185201,9.45
152178842309,-1.2259629,-0.78454745,11.624916,0.005332947,-0.0061767576,0.022343446,77.6661036,12.84185201,9.45
152178842330,-0.16988984,-1.6018143,9.439192,0.033921815,0.09008942,0.033457946,77.66619858,12.84186198,9.59
152178842351,-0.00945282,-1.150409,10.021128,-0.01885376,0.024609376,-0.038978577,77.66619858,12.84186198,9.59
152178842372,-0.082192995,-1.1764908,9.870259,0.0474823,-0.043919373,-0.051930238,77.66619858,12.84186198,9.59
152178842394,-0.3377487,-1.1821136,9.400787,-0.0028518676,-0.07629089,-0.0086807255,77.66619858,12.84186198,9.59
152178842415,-0.41934356,-1.2936188,9.881983,0.0035003661,-0.0161911,0.046284486,77.66619858,12.84186198,9.59
152178842436,-0.2280426,-1.3502076,9.561107,-0.0022354126,0.04586334,0.030039977,77.66627817,12.84185709,8.7
152178842458,-0.1769516,-0.90825653,9.948382,-0.008958435,-0.0032409667,-0.022732545,77.66627817,12.84185709,8.7
152178842479,-0.30472565,-1.0804183,9.688286,0.015718078,-0.023760986,-0.008558655,77.66627817,12.84185709,8.7
152178842500,-0.2218155,-1.4229492,9.884854,-0.012136841,-0.021192933,0.02052002,77.66627817,12.84185709,8.7
152178842521,-0.17718963,-1.2212356,9.742841,-0.009451294,0.012754822,0.02405243,77.66627817,12.84185709,8.7
152178842543,-0.13196564,-1.1340164,9.67668,-0.013479615,0.0150817875,0.0053649903,77.66636293,12.84185096,9.19
152178842564,-0.40438843,-0.85585177,9.563501,-0.003338623,0.018618774,0.010006714,77.66636293,12.84185096,9.19
152178842585,0.015312195,-1.0555344,9.195242,-0.002973938,0.0119018555,-0.00843811,77.66636293,12.84185096,9.19
152178842606,-0.35892487,-0.8042862,10.482344,0.0025238036,-0.015203858,-0.0031860352,77.66636293,12.84185096,9.19
152178842628,-0.17730713,-0.8769089,9.828024,-0.0018737793,-0.008981323,0.011595154,77.66636293,12.84185096,9.19
152178842649,-0.22959442,-0.85932314,9.552251,-0.007736206,-0.005078125,0.0076919557,77.6664427,12.84185743,8.58
152178842670,-0.30162048,-0.7917267,9.436679,-2.89917E-4,-0.036831666,-0.020535279,77.6664427,12.84185743,8.58
152178842691,-0.55322266,-0.9732208,10.129161,-0.001260376,-0.036460876,0.04359741,77.6664427,12.84185743,8.58
152178842712,-0.39445955,-0.8071564,10.26005,-0.0033355714,0.04684143,0.058865357,77.6664427,12.84185743,8.58
152178842734,0.19656678,-0.68285066,10.226311,0.0039932253,0.036334228,-0.018821716,77.66653019,12.84186281,8.94
152178842755,-0.15230408,-0.88636017,10.392491,-0.0033401488,-0.026567077,-0.029328918,77.66653019,12.84186281,8.94
152178842776,-0.25148773,-0.6950531,9.61243,-0.0066375732,-0.040003967,0.014894104,77.66653019,12.84186281,8.94
152178842797,-0.35820618,-0.7255615,9.794649,-0.025083924,-0.003366089,0.042251587,77.66653019,12.84186281,8.94
152178842815,-0.24658051,-0.77365875,9.7287245,-0.016166687,0.030473327,0.02613678,77.66653019,12.84186281,8.94
152178842836,0.061016846,-0.7742569,9.375063,0.008268738,0.009458924,-0.012467956,77.66662301,12.84186885,9.04
152178842857,-0.17204896,-0.69266206,10.157038,0.007901001,-0.03768768,-0.0061157225,77.66662301,12.84186885,9.04
152178842879,-0.13471374,-0.65186614,10.268068,0.012420654,-0.01813965,0.016001891,77.66662301,12.84186885,9.04
152178842900,-0.25746766,-0.8991623,9.839508,-0.0122589115,-0.02607727,0.017219543,77.66662301,12.84186885,9.04
152178842921,-0.1758728,-0.85920256,9.885574,-0.0035827637,-0.008489991,0.041149903,77.66662301,12.84186885,9.04
152178842942,-0.44219512,-0.906102,9.483099,-0.0046844482,0.019107055,0.03504181,77.66670668,12.84188379,9.38
152178842964,-0.14919586,-0.6662216,9.653949,0.012054443,0.044032287,0.030645752,77.66670668,12.84188379,9.38
152178842985,-0.08961181,-0.9918839,9.585513,0.0059463503,0.036213685,-0.0019592284,77.66670668,12.84188379,9.38
152178843006,-0.0741806,-0.53413695,9.74691,-0.005659485,0.0038452148,-0.014422608,77.66670668,12.84188379,9.38
152178843027,-0.3507889,-0.8934189,9.130997,0.015475464,-0.036585998,-0.008558655,77.66679546,12.84189449,9.16
152178843049,-0.2693146,-0.76348877,9.745234,-0.016773988,-0.03291931,0.027838135,77.66679546,12.84189449,9.16
152178843070,-0.4589447,-0.6142975,9.588147,0.010464477,0.0109207155,0.04310913,77.66679546,12.84189449,9.16
152178843091,-0.27302092,-1.0468003,9.2395115,-0.0038238526,0.04268799,0.016485596,77.66679546,12.84189449,9.16
152178843112,-0.058267213,-1.21035,9.231613,0.015722657,0.034381103,-0.010513306,77.66679546,12.84189449,9.16
152178843134,0.09786682,-0.88169557,10.8697405,0.018284608,-0.019487,-0.03042755,77.66688947,12.8419046,9.73
152178843155,-0.4654068,-0.67998046,10.281229,0.0014266968,-0.0542984,-0.003187561,77.66688947,12.8419046,9.73
152178843176,-0.32159728,-1.0421371,9.827307,0.007897949,-0.028152466,0.036509704,77.66688947,12.8419046,9.73
152178843197,-0.043908693,-0.979921,9.993248,-0.010180664,-0.009960937,0.017094422,77.66688947,12.8419046,9.73
152178843219,-0.24394837,-0.9734604,9.413469,0.013641357,-0.027789306,0.01282196,77.66688947,12.8419046,9.73
152178843240,-0.16737671,-1.074556,9.482025,-0.019337464,-0.0078842165,0.044573974,77.66697952,12.84191617,9.67
152178843261,-0.3570114,-1.0678589,9.535504,0.025250245,0.0033508302,0.023077393,77.66697952,12.84191617,9.67
152178843282,-0.36143798,-1.1555512,9.41227,0.0052108765,-0.0032440186,0.025033569,77.66697952,12.84191617,9.67
152178843304,-0.34995118,-1.017128,9.630977,0.0015487671,0.006770325,0.03296814,77.66697952,12.84191617,9.67
152178843325,-0.10157776,-0.91854703,10.251076,0.013276672,-0.0021453858,0.010496521,77.66697952,12.84191617,9.67
152178843346,-0.018185426,-1.042134,9.484535,-2.822876E-4,-0.023020934,0.018930053,77.66707482,12.8419214,9.71
152178843367,-0.43214417,-0.7738968,9.94396,0.016575623,-0.0021438599,0.053489685,77.66707482,12.8419214,9.71
152178843389,-0.19058838,-0.82091826,9.882105,0.009609985,0.036334228,0.042980958,77.66707482,12.8419214,9.71
152178843410,-0.030271912,-0.7206589,10.074727,0.0043548583,0.031201173,0.009031678,77.66707482,12.8419214,9.71
152178843431,-0.18592377,-0.5694321,9.419214,0.01926117,0.010559082,0.006228638,77.66716584,12.84193683,9.49
152178843453,-0.16881713,-0.6912292,9.905194,0.0036239624,0.0029815673,0.017337035,77.66716584,12.84193683,9.49
152178843474,-0.3784256,-0.6544968,10.35684,0.0017944336,0.03352661,0.037489317,77.66716584,12.84193683,9.49
152178843495,-0.021893311,-0.706781,9.782802,-7.720947E-4,0.06919861,0.009516907,77.66716584,12.84193683,9.49
152178843516,0.06448517,-0.5362915,10.077718,0.004600525,0.035357665,-0.031892397,77.66716584,12.84193683,9.49
152178843537,-0.2918045,-0.5435898,9.744875,0.014987183,-0.014717102,-0.03237915,77.66725693,12.84195817,9.59
152178843559,-0.23401642,-0.47299957,9.885574,-0.00773468,-0.039640807,-0.017111206,77.66725693,12.84195817,9.59
152178843580,-0.46528473,-0.60759735,9.893112,0.0055801393,-0.030111695,0.010256958,77.66725693,12.84195817,9.59
152178843601,-0.4186264,-0.3525238,9.830541,0.002645874,-0.0022674561,0.01966095,77.66725693,12.84195817,9.59
152178843623,-0.31980133,-0.34163362,10.082382,0.011442566,0.023628235,0.009892273,77.66725693,12.84195817,9.59
152178843643,-0.23258361,-0.35910034,9.914165,0.026957702,0.024118042,-0.0073364256,77.66734825,12.84198294,9.87
152178843665,-0.2584259,-0.986499,8.910736,0.0057022097,-0.0070251464,-0.0141799925,77.66734825,12.84198294,9.87
152178843686,-0.27709046,-1.4163711,9.872774,0.0013031006,-0.008982849,0.0052474975,77.66734825,12.84198294,9.87
152178843707,-0.088056944,-0.8965286,10.634886,0.0017929077,-0.0067825317,-0.01674347,77.66734825,12.84198294,9.87
152178843729,-0.19011231,-1.2093933,9.786868,-7.7819824E-4,-0.07494812,-0.031895448,77.66743519,12.84200295,9.82
152178843750,-0.18377075,-1.2041276,10.185394,0.03575592,-0.04562378,0.038339235,77.66743519,12.84200295,9.82
152178843771,-0.07908325,-0.78059846,9.758992,-0.010058594,-0.0023880005,0.03614197,77.66743519,12.84200295,9.82
152178843792,-0.20411071,-0.715155,9.978533,-0.008099365,-0.004463196,0.015390014,77.66743519,12.84200295,9.82
152178843814,-0.4259247,-0.85405886,9.918474,0.009858703,0.014224243,0.028936768,77.66743519,12.84200295,9.82
152178843835,-0.12263489,-0.7857437,10.394529,-0.018370057,0.02338562,0.022956848,77.66752588,12.84202518,9.82
152178843856,-0.23473664,-0.79471433,9.666391,0.0026474,0.035969544,0.022348022,77.66752588,12.84202518,9.82
152178843877,-0.2782898,-0.9976257,9.624275,-0.002482605,0.05735016,0.012084961,77.66752588,12.84202518,9.82
152178843899,0.00813446,-0.8454437,9.831736,0.009243774,0.025587464,-0.034217834,77.66752588,12.84202518,9.82
152178843920,-0.26596373,-0.5785233,9.636002,0.03245697,-0.037561037,-0.033972166,77.66752588,12.84202518,9.82
152178843941,-0.21332093,-0.69732666,9.935104,0.019018555,-0.0464798,0.009771729,77.66760565,12.84204041,9.39
152178843962,-0.6887787,-0.72113955,10.097456,0.0031372071,0.008731079,0.04676819,77.66760565,12.84204041,9.39
152178843984,0.061372377,-0.5805588,9.91345,0.0020370483,0.04109802,0.0074401856,77.66760565,12.84204041,9.39
152178844005,-0.2695511,-0.57888335,9.635762,-0.019459534,0.026684571,-0.008192444,77.66760565,12.84204041,9.39
152178844026,-0.039720155,-0.6012558,9.690915,0.0033782958,0.027416993,-0.013446045,77.66760565,12.84204041,9.39
152178844047,-0.35114747,-0.6040085,9.767487,0.03820038,-0.0073928833,-0.030793762,77.66760565,12.84204041,9.39
152178844068,-0.27302092,-0.414975,9.713049,-0.0035842895,-0.019117737,-0.013809204,77.6676782,12.84206157,9.2
152178844090,-0.2365326,-0.7488953,10.06336,0.027571106,-0.009713745,-0.015032959,77.6676782,12.84206157,9.2
152178844111,-0.2705078,-0.5769714,10.013231,0.016085815,-0.03328705,-0.0125900265,77.6676782,12.84206157,9.2
152178844132,-0.2749359,-0.5489731,9.903162,-0.008226013,-0.035971068,-0.0011032105,77.66776599,12.84208409,8.87
152178844154,-0.24323425,-0.4651062,10.021248,9.368897E-4,-0.031823732,0.0057388307,77.66776599,12.84208409,8.87
152178844175,-0.4188675,-0.45935974,9.471733,0.0037460327,-0.040863037,0.01746521,77.66776599,12.84208409,8.87
152178844196,-0.21272278,-0.5867813,9.3144045,0.02268219,0.007749939,0.048480224,77.66776599,12.84208409,8.87
152178844217,-0.10995331,-0.6835663,9.714009,-0.0116470335,0.0068969727,0.0072006225,77.66776599,12.84208409,8.87
152178844238,-0.22779694,-0.7961502,8.788225,-0.07711945,-0.0260849,0.0059829713,77.66785048,12.84210788,8.93
152178844260,-0.36706084,-0.5079346,9.562062,-0.05329895,-0.051124573,0.018441772,77.66785048,12.84210788,8.93
152178844281,-0.35007018,-0.7430298,9.016619,-0.039497375,-0.033651732,0.035777282,77.66785048,12.84210788,8.93
152178844302,-0.34648284,-0.56105804,10.470976,-0.053668212,-0.018634032,0.075724795,77.66785048,12.84210788,8.93
152178844324,-0.12753753,-0.89916384,9.989302,0.056645203,0.090335086,0.058625795,77.66785048,12.84210788,8.93
152178844345,-0.028833007,-0.74602205,9.610876,-0.06453399,0.013739014,-0.0070892335,77.66791726,12.84211911,8.41
152178844366,-0.24670105,-1.0881958,9.230899,0.05786743,-9.216309E-4,0.022227477,77.66791726,12.84211911,8.41
152178844387,-0.51063234,-0.86889493,9.869061,-0.024230957,0.004446411,0.037121583,77.66791726,12.84211911,8.41
152178844408,-0.016152954,-0.6144165,9.896105,0.0022781373,0.069445804,0.045426942,77.66791726,12.84211911,8.41
152178844430,-0.1080368,-0.9238083,9.986432,-0.0052978517,0.057717897,-0.023095703,77.6679995,12.84213355,9.09
152178844451,-0.17719117,-0.56667936,9.963221,0.03135681,-0.020220947,-0.031892397,77.6679995,12.84213355,9.09
152178844472,-0.5371933,-0.64612275,9.769519,-0.018000793,-0.04684906,0.006591797,77.6679995,12.84213355,9.09
152178844494,-0.43238372,-0.1524826,10.206212,-0.0076156617,0.029130554,0.0610672,77.6679995,12.84213355,9.09
152178844515,0.5921051,-1.1118835,9.09905,-0.01689453,0.07066345,-0.020652771,77.6679995,12.84213355,9.09
152178844536,-0.052285768,-0.0735199,9.902324,0.04235077,-0.108421326,-0.1142395,77.6680813,12.84215304,9.0
152178844557,-0.9199219,-0.58438873,10.445615,-0.0018707275,-0.09253998,0.053251646,77.6680813,12.84215304,9.0
152178844579,-0.27613372,-0.57062685,9.597237,-0.018730164,-0.004217529,0.060572814,77.6680813,12.84215304,9.0
152178844600,-0.36287078,-0.6856049,9.709102,0.052615356,0.034017943,0.03565521,77.6680813,12.84215304,9.0
152178844621,-0.34265137,-0.7639694,9.871097,-0.013964844,0.02973938,0.014280701,77.6680813,12.84215304,9.0
152178844642,-0.3730423,-0.63810575,10.152611,0.023295593,0.0134887695,0.004269409,77.66814959,12.84215328,8.48
152178844663,-0.27720946,-0.6702911,9.436079,-0.0038269043,-0.007270813,-0.0073379516,77.66814959,12.84215328,8.48
152178844685,-0.39003295,-0.6276962,9.803141,-0.01738739,-0.044769287,-0.0019668578,77.66814959,12.84215328,8.48
152178844706,-0.37124938,-0.81314087,10.27022,0.010830688,-0.04257202,0.025883485,77.66814959,12.84215328,8.48
152178844727,-0.71593475,-0.3593399,9.770238,0.018162537,0.0032348633,0.049093626,77.66814959,12.84215328,8.48
152178844749,-0.13854523,-0.66370547,10.051277,0.045159914,0.03486786,0.022836303,77.6682263,12.84216188,8.04
152178844770,-0.27781066,-0.61322176,9.79321,-0.023861695,-0.0025085448,-0.005622864,77.6682263,12.84216188,8.04
152178844791,-0.6856659,-0.45469514,9.769524,-0.013726806,-0.04061737,0.011836243,77.6682263,12.84216188,8.04
152178844812,-0.37423706,-0.6848877,9.945154,0.021704102,-0.004100037,0.0424942,77.6682263,12.84216188,8.04
152178844833,-0.31669006,-0.5651245,10.054629,-0.014331055,0.025587464,0.039808653,77.66830556,12.84219699,8.9
152178844855,-0.34062043,-0.6110672,9.271574,0.00973053,0.038658142,0.014898682,77.66830556,12.84219699,8.9
152178844876,-0.11485748,-0.71658933,10.054146,0.013154602,-0.0059310915,-0.017112732,77.66830556,12.84219699,8.9
152178844897,-0.1154541,-0.69661105,9.948267,0.009733582,-0.012644959,0.025396729,77.66830556,12.84219699,8.9
152178844918,-0.2573471,-0.66239166,9.895742,0.017306518,0.010440064,0.023936462,77.66830556,12.84219699,8.9
152178844940,-0.050610352,-0.66035765,10.135982,0.028547669,0.033644103,0.02320404,77.66839309,12.8422198,9.57
152178844961,-0.07310333,-0.55735016,9.980565,0.014129639,0.008117676,-0.01662445,77.66839309,12.8422198,9.57
152178844982,-0.036372375,-0.7685135,9.868225,0.013031006,-0.03878479,-0.02016754,77.66839309,12.8422198,9.57
152178845003,-0.57966155,-0.71850586,9.362383,-6.515503E-4,-0.049905397,0.021490479,77.66839309,12.8422198,9.57
152178845025,-0.16773987,-0.6056839,9.484537,-0.003829956,-0.019485474,0.041763306,77.66839309,12.8422198,9.57
152178845046,-0.38955384,-0.6760315,10.351573,2.029419E-4,0.022895813,0.0432251,77.66846398,12.84224343,9.39
152178845067,-0.35713196,-0.61764985,9.830656,-0.012503052,0.07017517,0.03906555,77.66846398,12.84224343,9.39
152178845088,0.0043060305,-0.66849214,9.405095,-0.005296326,0.088256836,-0.0015945435,77.66846398,12.84224343,9.39
152178845110,0.32087556,-0.6327225,10.226669,-0.004560852,0.007019043,-0.06561432,77.66846398,12.84224343,9.39
152178845131,-0.2543579,-0.58809507,9.773468,0.010096741,-0.072135925,-0.04081116,77.66855706,12.84227537,9.36
152178845152,-0.41874543,-0.4287308,10.046969,0.017552186,-0.07604828,0.018557739,77.66855706,12.84227537,9.36
152178845174,-0.47114563,-0.5506455,9.787348,-0.012744141,-0.029624939,0.05165863,77.66855706,12.84227537,9.36
152178845195,-0.3030533,-0.4606781,9.925054,0.015962219,0.0055511473,0.029188538,77.66855706,12.84227537,9.36
152178845216,-0.31788635,-0.50733644,9.848724,-0.013482666,-0.0031204224,0.022468567,77.66855706,12.84227537,9.36
152178845237,-0.26177827,-0.5417938,10.021365,-0.0013824463,-0.0038497925,0.026374817,77.66864337,12.84231685,8.93
152178845258,-0.16199493,-0.61286163,9.889761,0.013034058,0.0118988035,0.03491974,77.66864337,12.84231685,8.93
152178845280,-0.30317077,-0.6177658,10.183362,-0.020075988,0.02509613,0.039564513,77.66864337,12.84231685,8.93
152178845301,-0.24921112,-0.6449264,9.312849,-0.010423278,0.06626739,0.03663788,77.66864337,12.84231685,8.93
152178845322,0.2109253,-0.5880966,9.828505,0.006436157,0.035116576,-0.022853088,77.66864337,12.84231685,8.93
152178845343,-0.353302,-0.49238434,9.856021,-0.0012634278,-0.027667236,-0.027006531,77.66873508,12.84235628,9.06
152178845365,-0.36622316,-0.5642868,9.934624,0.0043609617,-0.017529298,0.025036622,77.66873508,12.84235628,9.06
152178845386,-0.31441802,-0.54370576,9.001663,-0.004801941,0.020697022,0.025645446,77.66873508,12.84235628,9.06
152178845407,-0.17503509,-0.61788785,9.65634,-0.011282349,0.060159303,0.027105713,77.66873508,12.84235628,9.06
152178845429,0.12897643,-0.6395416,9.720706,-4.0740968E-4,0.025831604,-0.04875183,77.66873508,12.84235628,9.06
152178845449,-0.24861756,-0.5578262,9.321587,0.0030151368,-0.05539856,-0.044966124,77.66881405,12.84238194,8.92
152178845471,-0.36861572,-0.69397736,9.354009,0.019015502,-0.043060303,0.014161682,77.66881405,12.84238194,8.92
152178845492,-0.49423677,-0.659404,10.448484,0.025857544,-0.016674805,0.021733094,77.66881405,12.84238194,8.92
152178845513,-0.33918303,-0.63810575,9.981285,-0.016041566,0.016670227,0.029304504,77.66881405,12.84238194,8.92
152178845534,-0.30329284,-0.52324677,8.709378,-0.02508087,0.06370087,0.029670715,77.66889446,12.84239581,8.63
152178845556,-0.07130585,-0.54347074,9.513367,0.0230484,0.021186829,-0.046186827,77.66889446,12.84239581,8.63
152178845577,-0.28474578,-0.5816345,9.418493,0.0024002076,-0.040982056,-0.030915832,77.66889446,12.84239581,8.63
152178845598,-0.32709962,-0.6923035,9.431534,-0.00211792,-0.03548584,0.005003357,77.66889446,12.84239581,8.63
152178845620,-0.47234648,-0.7043869,9.611593,-0.019709777,-0.004953003,0.03126068,77.66889446,12.84239581,8.63
152178845641,-0.2963516,-0.6591629,10.137776,0.010585022,0.028517151,0.012451172,77.6689555,12.84240383,8.25
152178845662,-0.14524536,-0.7689926,10.181447,0.009487915,0.022044372,-0.004159546,77.6689555,12.84240383,8.25
152178845683,-0.44614258,-0.6004181,10.417976,0.015966797,-0.0010467529,-0.01612854,77.6689555,12.84240383,8.25
152178845704,-0.16343078,-0.6722046,9.58623,-0.004925537,0.0017654418,-0.0068496703,77.6689555,12.84240383,8.25
152178845726,-0.30089873,0.08631744,11.064519,-0.04401245,-0.025958251,-0.0116119385,77.6689555,12.84240383,8.25
152178845747,-0.35689393,-0.78574216,9.418015,0.061045837,-0.018992614,-0.013079834,77.66902237,12.84242348,8.16
152178845769,-0.36335143,-0.5834274,9.499252,-0.043159485,-0.04282074,0.014770508,77.66902237,12.84242348,8.16
152178845789,-0.408696,-0.6303299,9.727168,0.040275574,1.7547607E-4,0.02673645,77.66902237,12.84242348,8.16
152178845811,-0.09296417,-0.78574526,10.065394,-0.010423278,0.022654723,0.010984803,77.66902237,12.84242348,8.16
152178845832,-0.10229645,-0.36149445,9.553209,-0.008840943,-0.01508789,-0.01442566,77.66910346,12.84245699,8.59
152178845853,-0.15553589,-0.591925,9.248243,-0.002484131,-0.03291931,0.009893799,77.66910346,12.84245699,8.59
152178845874,-0.23581544,-0.79770815,9.478195,-0.012750244,-0.0016540528,0.035406493,77.66910346,12.84245699,8.59
152178845896,-0.10050049,-0.5878555,10.568602,0.0044815065,0.006034851,0.012454224,77.66910346,12.84245699,8.59
152178845917,-0.16713867,-0.5353333,10.241983,0.0027709962,-0.01007843,0.012454224,77.66910346,12.84245699,8.59
152178845938,-0.3322464,-0.3636505,10.104876,-0.0019973754,-0.015570069,0.018193055,77.66916972,12.84248802,8.3
152178845959,-0.5480774,-0.7323837,9.597356,-0.006152344,0.0012756347,0.039808653,77.66916972,12.84248802,8.3
152178845981,-0.37387848,-0.6162125,9.997678,-1.663208E-4,0.056858826,0.05153198,77.66916972,12.84248802,8.3
152178846002,-0.17335816,-0.4524231,10.457217,0.018771362,0.07823791,0.006343079,77.66916972,12.84248802,8.3
152178846023,-0.096673585,-0.49668884,9.780769,0.011686707,0.026559448,-0.04447632,77.66916972,12.84248802,8.3
152178846044,-0.042474367,-0.34378815,9.419809,0.0056991577,-0.030603027,-0.04362335,77.66925081,12.84251918,8.29
152178846066,-0.21930389,-0.6456436,9.291794,-7.751465E-4,-0.04623566,-0.007580566,77.66925081,12.84251918,8.29
152178846087,-0.26309204,-0.8358704,10.064554,-0.0033432008,-0.030474853,0.014656067,77.66925081,12.84251918,8.29
152178846108,-0.26823425,-0.90550077,10.571597,0.005090332,0.0028671264,0.025642395,77.66925081,12.84251918,8.29
152178846129,-0.24550323,-0.99320066,9.992772,0.016082764,0.037194826,0.021005249,77.66932624,12.8425469,8.13
152178846151,-0.04020233,-1.0969284,9.702998,-0.050733946,0.025708009,-0.01869812,77.66932624,12.8425469,8.13
152178846172,-0.12981263,-0.8289337,10.495382,0.019387817,-0.008131409,-0.04130249,77.66932624,12.8425469,8.13
152178846193,-0.15960236,-0.97154695,9.404615,0.021829223,-0.07299042,-0.03983612,77.66932624,12.8425469,8.13
152178846214,-0.29982147,-1.1478974,10.028066,-0.0076141357,-0.07507019,0.03199158,77.66932624,12.8425469,8.13
152178846236,-0.4902893,-1.2668213,10.251437,0.010588074,0.008488464,0.076216124,77.66939563,12.84257199,8.01
152178846257,-0.024528503,-1.3333404,10.225716,0.010467529,0.044641115,0.024539184,77.66939563,12.84257199,8.01
152178846278,0.15493469,-1.6883163,8.495943,-8.9569093E-4,4.2114258E-4,-0.0166214,77.66939563,12.84257199,8.01
152178846299,-0.281279,-1.6574478,11.971515,0.00105896,-0.021562194,0.0064712525,77.66939563,12.84257199,8.01
152178846321,-0.27720794,-1.1889343,9.998993,0.017306518,-0.011183167,0.03553314,77.66939563,12.84257199,8.01
152178846342,-0.240242,-0.98829496,8.906668,0.0031356812,0.015812684,0.05019226,77.66946027,12.84259498,7.83
152178846363,-0.06520233,-1.0531418,10.626633,0.025003051,0.060037233,0.041766357,77.66946027,12.84259498,7.83
152178846385,0.04115448,-1.0934632,11.245295,0.047361754,0.014595032,-0.04753418,77.66946027,12.84259498,7.83
152178846406,-0.17264405,-0.016209412,11.357158,0.24552307,-0.042819213,-0.046551514,77.66946027,12.84259498,7.83
152178846427,-0.3455246,-1.2839279,8.127806,-0.12549897,-0.073236085,0.022706604,77.66946027,12.84259498,7.83
152178846448,-0.8039902,0.09242401,7.0284224,-0.34137422,-0.056748964,0.082688905,77.66953914,12.84262535,7.82
152178846469,-0.074775696,-0.13597107,9.502481,-0.1918396,0.005303955,0.07132568,77.66953914,12.84262535,7.82
152178846491,-0.2748169,-0.40372926,10.352292,0.33006746,-0.03316345,-0.002330017,77.66953914,12.84262535,7.82
152178846512,-0.43657073,-0.4180847,10.431137,0.03429718,-0.12870178,0.042253114,77.66953914,12.84262535,7.82
152178846533,-0.6707077,-0.035710145,9.690677,-0.027156066,-0.06126709,0.15354614,77.66962355,12.84266854,8.27
152178846554,-0.40881652,-0.23563233,10.365573,0.09500732,0.09656372,0.18946686,77.66962355,12.84266854,8.27
152178846576,0.25950164,-0.15870361,9.824435,-0.043278504,0.10890655,0.07279511,77.66962355,12.84266854,8.27
152178846597,0.16929169,-0.20105591,9.54986,0.02268219,0.014103699,-0.02835083,77.66962355,12.84266854,8.27
152178846618,-0.5038086,-0.12520447,10.358274,-4.0740968E-4,-0.034140013,0.033218384,77.66962355,12.84266854,8.27
152178846639,-0.29790956,-0.09960022,9.951612,-0.026547242,-0.015328979,0.086595155,77.66968157,12.84269423,7.79
152178846661,-0.31704712,-0.14315033,9.969801,0.02928009,0.03743591,0.0748703,77.66968157,12.84269423,7.79
152178846682,-0.0211792,-0.26698303,9.825871,-0.0074920654,0.0010284424,0.037121583,77.66968157,12.84269423,7.79
152178846703,-0.101098634,-0.21182403,9.538135,0.018041993,-0.05454712,0.005003357,77.66968157,12.84269423,7.79
152178846724,-0.3579712,0.03523407,10.120069,0.0065582274,-0.094004825,0.041401673,77.66968157,12.84269423,7.79
152178846746,-0.5205612,-0.26231384,9.2306595,-0.022766113,-0.06822662,0.1271576,77.66972889,12.84272366,7.33
152178846767,-0.44063872,-0.25573272,9.975901,0.033067323,0.0272995,0.16331634,77.66972889,12.84272366,7.33
152178846788,0.1307663,-0.359581,9.800268,-0.0021209717,0.06919861,0.10455628,77.66972889,12.84272366,7.33
152178846809,-0.29862672,-0.085603334,9.965014,-0.0019943237,0.020578003,0.041888427,77.66972889,12.84272366,7.33
152178846831,-0.26763916,-0.1317871,9.605135,-0.007246399,0.045129396,0.103823856,77.66978069,12.84275804,6.92
152178846852,-0.34612122,-0.29652864,9.839991,0.006922913,0.10560455,0.089286804,77.66978069,12.84275804,6.92
152178846873,0.032780457,-0.2088333,10.004376,-0.0060287477,0.11745453,0.025517274,77.66978069,12.84275804,6.92
152178846894,-0.10648193,-0.36819306,9.437877,-0.014820862,0.08043976,-0.029695129,77.66978069,12.84275804,6.92
152178846916,-0.19525452,-0.3027481,9.3183565,0.017674256,0.023382569,-0.047776796,77.66978069,12.84275804,6.92
152178846937,-0.26309508,-0.45577392,9.670458,-7.766724E-4,-0.0033691407,-0.034338377,77.66983807,12.84280788,6.76
152178846958,-0.48514557,-0.11934052,10.251437,-0.005783081,5.1879884E-5,-0.01320343,77.66983807,12.84280788,6.76
152178846979,-0.21643372,-0.13477631,10.211957,0.007171631,-5.5389403E-4,-0.030795287,77.66983807,12.84280788,6.76
152178847001,-0.17874756,-0.20022126,9.9231415,-7.720947E-4,-0.036953736,-0.049484253,77.66983807,12.84280788,6.76
152178847022,-0.4675598,-0.13369751,9.574026,0.011196899,-0.059309386,-0.015766907,77.66983807,12.84280788,6.76
152178847043,-0.20841675,-0.3050247,9.421486,0.0020339966,-0.044287108,0.015878296,77.66988792,12.84286241,7.34
152178847064,-0.19489746,-0.45577088,9.831854,0.0052139284,-0.02571106,0.02357025,77.66988792,12.84286241,7.34
152178847086,-0.14823914,-0.34366912,10.022082,0.012176514,-0.025103759,0.017221069,77.66988792,12.84286241,7.34
152178847107,-0.4175461,-0.419281,9.957121,-0.0038345337,-0.016189575,0.03846283,77.66988792,12.84286241,7.34
152178847128,-0.59880674,-0.3512085,9.715205,-0.0034622191,0.048553467,0.08231964,77.6699224,12.84290288,6.64
152178847149,-0.07106934,-0.23347779,9.667465,-0.007859802,0.12441864,0.056912232,77.6699224,12.84290288,6.64
152178847171,-0.056591798,-0.30909118,10.028183,0.0044769286,0.08373718,-0.06585388,77.6699224,12.84290288,6.64
152178847192,-0.09643249,-0.17940216,10.030935,0.027813721,-0.020095825,-0.0785614,77.6699224,12.84290288,6.64
152178847213,-0.5319244,-0.3333786,9.888924,0.025250245,-0.08325348,-0.038000487,77.6699224,12.84290288,6.64
152178847234,-0.65097046,-0.25788575,9.87086,0.0036239624,-0.04598999,0.041279603,77.66997049,12.84295297,7.65
152178847256,-0.31453705,-0.26327056,9.5590725,0.0103408815,0.013122559,0.030038452,77.66997049,12.84295297,7.65
152178847277,-0.28642425,-0.25035095,9.765332,0.014863586,0.029251099,0.0013381958,77.66997049,12.84295297,7.65
152178847298,-0.10947113,-0.12005768,10.048044,0.029278565,-0.010690307,-0.031282045,77.66997049,12.84295297,7.65
152178847319,-0.5922241,-0.12377014,9.746073,0.017185975,-0.0272995,-7.446289E-4,77.66997049,12.84295297,7.65
152178847340,-0.427359,-0.16181335,9.239632,-0.051708985,0.0127594,0.036875915,77.67002008,12.84298856,7.58
152178847362,-0.2695511,-0.28983003,9.22946,0.026593018,0.040245056,-0.009165955,77.67002008,12.84298856,7.58
152178847383,-0.13124847,-0.18909149,9.866193,0.014987183,0.0061676027,-0.023097228,77.67002008,12.84298856,7.58
152178847404,-0.51170653,-0.0035308837,9.572351,0.009611512,-0.028398132,-0.025173951,77.67002008,12.84298856,7.58
152178847426,-0.5988037,-0.23120728,9.563858,-0.01652832,-0.0127685545,0.012696838,77.67002008,12.84298856,7.58
152178847447,-0.13411865,0.26781768,9.803497,0.011201477,0.00713501,0.007810974,77.67007229,12.84303558,7.41
152178847468,-0.50584257,-0.4709671,10.398832,0.039053343,-0.0069091795,-0.01992035,77.67007229,12.84303558,7.41
152178847489,-0.38907623,0.019081116,9.949101,0.008021546,-0.004220581,0.020758057,77.67007229,12.84303558,7.41
152178847511,-0.34073943,-0.24795532,9.875882,0.025614928,0.03816681,0.015751649,77.67007229,12.84303558,7.41
152178847532,-0.26703796,0.01752777,9.793211,-0.012257385,0.018379211,-0.022488404,77.67012266,12.84308802,7.55
152178847553,-0.25699311,0.18466492,9.979251,0.018530274,-0.013256836,-0.033117674,77.67012266,12.84308802,7.55
152178847574,-0.4060623,-0.34737855,9.771315,3.2653808E-4,0.0027404786,0.008296204,77.67012266,12.84308802,7.55
152178847596,-0.26967317,-0.2790634,9.212112,-0.031433105,0.025582885,-0.01552124,77.67012266,12.84308802,7.55
152178847617,-0.11533661,0.04073944,10.129761,0.009121704,-0.0066574095,-0.026268005,77.67012266,12.84308802,7.55
152178847638,-0.35318145,-0.21170501,9.728842,-0.007371521,-0.04733429,-0.044596862,77.67018079,12.84313993,7.89
152178847659,-0.53874665,0.14781952,10.176183,0.07338257,-0.038420103,0.007081604,77.67018079,12.84313993,7.89
152178847681,-0.4642105,-0.37932128,9.280907,-0.044869997,0.038780212,0.05189972,77.67018079,12.84313993,7.89
152178847702,-0.14536591,0.09326172,10.039911,0.014373779,0.073597714,-2.532959E-4,77.67018079,12.84313993,7.89
152178847723,-0.08769836,-0.045045473,9.430817,-0.052565,0.047087096,-0.06427002,77.67018079,12.84313993,7.89
152178847744,-0.2683548,0.23348236,9.75959,-0.02459259,-0.048927307,-0.065122984,77.67026028,12.84321123,9.16
152178847765,-0.39134827,-0.28827667,10.343557,0.090489194,-0.024737548,-0.028961182,77.67026028,12.84321123,9.16
152178847787,-0.20171662,-0.013697815,9.591736,-0.09373017,-0.040130615,0.004270935,77.67026028,12.84321123,9.16
152178847808,-0.4900528,0.042173766,9.302203,0.068618774,0.015933227,-0.0037963868,77.67026028,12.84321123,9.16
152178847829,-0.17982177,0.021955872,10.342244,-0.03766327,-0.003364563,-0.02859497,77.67030413,12.84325279,8.24
152178847850,-0.39122924,0.08345032,9.027388,-0.022149658,-0.03744049,-0.027493287,77.67030413,12.84325279,8.24
152178847872,-0.2614151,-0.50578004,10.077835,-0.015795898,-0.036094666,-0.0096557615,77.67030413,12.84325279,8.24
152178847893,-0.28414765,-0.0735199,9.349939,0.0021591187,-0.046969604,-0.0013504028,77.67030413,12.84325279,8.24
152178847914,-0.40905458,-0.05114746,9.641986,-0.017997742,-0.031698607,0.023565674,77.67030413,12.84325279,8.24
152178847935,-0.45272675,-0.10821533,9.585274,-0.041937254,0.009587097,0.04872284,77.6703617,12.84329829,8.15
152178847957,0.067956544,-0.211586,10.163498,-0.024594117,0.0417099,0.019898986,77.6703617,12.84329829,8.15
152178847978,-0.2397644,-0.44309235,9.263559,0.0148651125,0.013981628,-0.02407379,77.6703617,12.84329829,8.15
152178847999,-0.21846771,-0.2967682,9.508226,-0.007855224,-0.033164978,-0.0106369015,77.6703617,12.84329829,8.15
152178848020,-0.2908493,-0.17282104,9.734827,-0.0035827637,-0.02180786,0.026251221,77.6703617,12.84329829,8.15
152178848042,-0.47545472,0.056530762,9.687929,-0.021296691,0.027418518,0.04029541,77.67041719,12.84334369,7.96
152178848063,-0.27218324,-0.26817322,10.110617,-0.007611084,0.07372131,0.025637817,77.67041719,12.84334369,7.96
152178848084,-0.17646942,-0.15547332,9.968126,-0.0022384643,0.084350586,-0.019921875,77.67041719,12.84334369,7.96
152178848106,0.064726256,-0.2661438,9.542682,-0.05452118,0.05001831,-0.046310425,77.67041719,12.84334369,7.96
152178848127,-0.29479676,-0.5813934,10.290797,0.08474426,0.010195923,-0.07990722,77.67041719,12.84334369,7.96
152178848148,-0.14093933,-0.07746582,9.590418,-0.020446777,-0.08997498,-0.061091613,77.67047588,12.8433838,8.38
152178848169,-0.875296,-0.21732788,9.799191,0.007168579,-0.0466095,0.013061523,77.67047588,12.8433838,8.38
152178848190,-0.32829896,-0.044807434,9.776342,-0.012744141,0.06663513,0.044207763,77.67047588,12.8433838,8.38
152178848212,0.024046326,-0.008197022,9.928286,0.0041137696,0.061746217,-0.064021304,77.67047588,12.8433838,8.38
152178848233,-0.15206452,-0.14566498,10.048047,0.033190917,-0.029020691,-0.08088684,77.67053419,12.84342331,8.87
152178848254,-0.47282258,-0.29078674,9.933431,0.02256012,-0.09815826,-0.057424925,77.67053419,12.84342331,8.87
152178848275,-0.65420073,-0.26243287,10.116837,0.010462952,-0.08288727,0.019166565,77.67053419,12.84342331,8.87
152178848297,-0.50392914,-0.18047638,9.80876,0.0061920164,-0.008251953,0.037361145,77.67053419,12.84342331,8.87
152178848318,-0.234021,-0.3050247,9.983679,0.017550658,0.037924193,0.013185119,77.67053419,12.84342331,8.87
152178848339,-0.08470459,-0.46247253,9.31321,-0.012986755,0.027781677,-0.016625976,77.6705935,12.84346975,9.13
152178848361,-0.30030212,-0.34845582,9.73303,-0.027159119,0.0023773194,-0.021876525,77.6705935,12.84346975,9.13
152178848382,-0.30412596,-0.06322937,9.936299,0.0068008425,-0.018992614,-0.016133118,77.6705935,12.84346975,9.13
152178848403,-0.29539338,-0.47850037,9.814867,-0.012620544,0.012266541,0.01526947,77.6705935,12.84346975,9.13
152178848424,-0.047618102,-0.09720764,9.974228,-0.033392332,0.028637696,-0.008312988,77.6705935,12.84346975,9.13
152178848445,-0.14727935,-0.40815583,9.968603,-0.0016296387,-0.010083008,-0.042886354,77.67066332,12.84351572,9.12
152178848467,-0.39374238,-0.47527313,9.4199295,-0.043281555,-0.040615845,-0.015769958,77.67066332,12.84351572,9.12
152178848488,-0.5280975,-1.2098725,9.536099,-0.013723755,-0.015332031,0.013671875,77.67066332,12.84351572,9.12
152178848509,-0.28666076,-1.1160705,9.901007,-0.024107361,0.025708009,0.009648132,77.67066332,12.84351572,9.12
152178848531,-0.25484008,-0.87990266,10.237679,-0.02545166,0.026315307,-0.015640259,77.67073023,12.84356729,9.01
152178848552,-0.017945861,-1.1858231,9.358793,-0.0037063598,-0.012524414,-0.03909912,77.67073023,12.84356729,9.01
152178848573,-0.44805756,-1.0984863,10.013232,-0.0033401488,-0.03170166,-0.01381073,77.67073023,12.84356729,9.01
152178848594,-0.29862365,-0.6492325,10.056181,0.019015502,-0.011051941,-1.296997E-4,77.67073023,12.84356729,9.01
152178848616,-0.5194839,-1.0331634,9.469582,-0.01934204,0.010070801,0.011601257,77.67073023,12.84356729,9.01
152178848637,-0.28367156,-0.78334963,9.08398,0.014863586,0.054415893,0.012823487,77.67079461,12.84362365,8.48
152178848658,0.062690735,-0.48783723,10.352295,0.014498902,0.050505064,-0.03592529,77.67079461,12.84362365,8.48
152178848679,-0.14644165,-0.59647214,10.49323,0.027445983,-0.019363403,-0.072209165,77.67079461,12.84362365,8.48
152178848700,-0.42149812,-0.42645875,10.504476,0.012298584,-0.050880432,-0.022610474,77.67079461,12.84362365,8.48
152178848722,-0.44195557,-0.6722061,9.34994,-0.010060119,-0.006289673,0.011846924,77.67079461,12.84362365,8.48
152178848743,-0.12203369,-0.67651063,9.605016,-0.022032166,0.029981995,-0.0012298584,77.67085255,12.8436661,8.09
152178848764,-0.044267274,-0.71013033,9.294067,0.025860596,-0.004826355,-0.05278473,77.67085255,12.8436661,8.09
152178848785,-0.2209793,-0.6763916,9.609204,0.0016693115,-0.05808716,-0.034825135,77.67085255,12.8436661,8.09
152178848807,-0.33547515,-0.64480436,9.707787,0.0017944336,-0.04636383,0.003538513,77.67085255,12.8436661,8.09
152178848828,-0.37184602,-0.68656003,8.683179,-0.036073305,-0.014353943,0.025030518,77.67091527,12.84370993,8.32
152178848849,-0.3125061,-0.6489929,10.397158,0.03892975,0.0015213012,6.0272217E-4,77.67091527,12.84370993,8.32
152178848870,-0.32052153,-0.8848053,9.995764,-0.06184845,-0.015335083,0.00206604,77.67091527,12.84370993,8.32
152178848892,-0.24430847,-0.4610382,10.394048,0.015109253,-0.012034607,0.013433838,77.67091527,12.84370993,8.32
152178848913,-0.3272217,-0.49058685,10.717319,0.03587494,-0.011663819,-0.0015960693,77.67091527,12.84370993,8.32
152178848934,-0.2875015,-0.76312864,9.627507,-0.0374176,-0.029864501,0.017095948,77.6709693,12.84374509,8.13
152178848955,-0.28510743,-0.9796814,9.931155,0.020117188,-0.0026290894,0.026011657,77.6709693,12.84374509,8.13
152178848977,-0.3468399,-0.5263626,10.466551,-0.02593689,0.032060243,0.038342286,77.6709693,12.84374509,8.13
152178848998,-0.19561462,-0.66622317,9.584315,-0.02068634,0.04476471,0.009770202,77.6709693,12.84374509,8.13
152178849019,-0.23354034,-0.7310654,9.960707,0.007040405,0.03352661,-0.016868591,77.6709693,12.84374509,8.13
152178849040,-0.1646286,-1.5000015,9.204694,-0.05464325,-0.010935974,-0.030915832,77.67102217,12.84377397,7.74
152178849062,-0.17563629,-0.8824142,9.546988,-0.017260741,-0.057966612,-0.013935852,77.67102217,12.84377397,7.74
152178849083,-0.46229553,-1.0512238,10.227867,-0.015919495,-0.04159546,0.009518432,77.67102217,12.84377397,7.74
152178849104,-0.49603423,-0.7225723,9.608243,0.010586548,-9.2315674E-4,0.04273987,77.67102217,12.84377397,7.74
152178849126,-0.42544556,-1.3389664,10.874886,0.0014236451,0.042445373,0.026133727,77.67102217,12.84377397,7.74
152178849146,-0.04067993,-1.1648849,9.074285,-0.14076844,0.040368654,0.0057388307,77.67109856,12.84382904,8.43
152178849168,0.025720214,-1.1127228,10.323339,0.13141327,0.027667236,-0.038124084,77.67109856,12.84382904,8.43
152178849189,-0.28247374,-0.756192,10.54097,-0.012994384,-0.036096193,-0.013812256,77.67109856,12.84382904,8.43
152178849211,-0.33391723,-0.8377884,10.164935,0.03465729,-0.018754577,-0.0025741577,77.67109856,12.84382904,8.43
152178849232,-0.38225707,-0.967717,10.472293,0.015106201,-0.0022674561,0.0076889037,77.67116755,12.8438793,8.61
152178849253,-0.18855591,-1.1384445,9.487765,0.0103439335,-0.017404174,0.0013412476,77.67116755,12.8438793,8.61
152178849274,-0.31094664,-0.82845306,10.37323,0.020118713,-0.027789306,-0.0036712647,77.67116755,12.8438793,8.61
152178849295,-0.41036987,-0.731665,9.990499,-0.007247925,0.0065338137,0.042736817,77.67116755,12.8438793,8.61
152178849316,-0.22707824,-1.0063614,9.347548,0.012174988,0.04989166,0.026371766,77.67116755,12.8438793,8.61
152178849338,-0.27445832,-1.1118835,9.748703,-0.002482605,0.056861877,0.0019470215,77.67123367,12.84393179,8.56
152178849359,-0.26405182,-0.4709671,9.661604,0.008876038,0.080438234,-0.006846619,77.67123367,12.84393179,8.56
152178849381,0.075013734,-0.5073379,9.956163,0.02268219,0.054293822,-0.05706024,77.67123367,12.84393179,8.56
152178849402,-0.34109956,-0.44811708,9.776817,0.020359803,-0.014480591,-0.074775696,77.67123367,12.84393179,8.56
152178849423,-0.3509079,-0.53964233,10.313768,0.0097290035,-0.061875917,-0.056204222,77.67123367,12.84393179,8.56
152178849444,-0.49124756,-0.5644043,9.646172,0.017919922,-0.05869751,-0.008192444,77.67128896,12.84397572,8.14
152178849465,-0.54676056,-0.5014755,10.254308,0.008020019,-0.02754364,0.0084259035,77.67128896,12.84397572,8.14
152178849487,-0.43465728,-0.3741745,10.306712,-0.0033401488,3.036499E-4,0.011724854,77.67128896,12.84397572,8.14
152178849508,-0.23808746,-0.5947968,10.1238985,-0.0010192872,0.008239746,-0.0037948608,77.67128896,12.84397572,8.14
152178849529,-0.30843505,-0.5787628,9.638036,0.009489441,-0.010687256,-0.02785797,77.67135039,12.84401595,8.07
152178849550,-0.35748902,-0.59706724,10.143156,-0.0011398315,-0.01838379,0.0013305664,77.67135039,12.84401595,8.07
152178849571,-0.38775787,-0.58881223,10.780371,-0.006147766,-0.0064193727,-4.928589E-4,77.67135039,12.84401595,8.07
152178849593,-0.19489746,-0.4881943,9.239988,-0.016168213,5.447388E-4,0.007078552,77.67135039,12.84401595,8.07
152178849614,-0.26620024,-0.674115,9.569484,-0.011767578,0.0034698485,0.0042648315,77.67135039,12.84401595,8.07
152178849635,-0.32710114,-0.73549193,10.523976,0.010464477,-0.007998657,-0.011372375,77.67141581,12.8440546,8.31
152178849656,-0.38368836,-1.0085144,10.741964,-0.013726806,-0.010568237,0.0076919557,77.67141581,12.8440546,8.31
152178849678,-0.21488038,-0.94510496,9.71951,-0.010179138,0.005430603,0.0094039915,77.67141581,12.8440546,8.31
152178849699,-0.09403839,-1.1305466,9.603699,-0.016777039,5.0354003E-5,-0.0039138794,77.67141581,12.8440546,8.31
152178849720,-0.13352203,-0.96652067,9.463359,-0.012379455,-0.013616944,-0.0106369015,77.67141581,12.8440546,8.31
152178849741,-0.219664,-1.1566299,9.842862,-0.018489074,-0.022900391,-0.0011093139,77.6714718,12.84409793,8.26
152178849763,-0.58408964,-1.1417954,10.387466,-0.01567688,-0.012036133,0.021124268,77.6714718,12.84409793,8.26
152178849784,-0.30113983,-1.1902481,9.069382,-0.01519165,0.02595215,0.037120055,77.6714718,12.84409793,8.26
152178849805,-0.29431763,-1.0665405,10.04039,-0.013604736,0.047210693,0.010986328,77.6714718,12.84409793,8.26
152178849826,-0.12610474,-1.1700318,9.220729,-0.01555481,0.039758302,-0.023219299,77.67152723,12.84413846,8.04
152178849848,-0.15410003,-1.0512253,10.254187,-0.006388855,-0.007272339,-0.05314789,77.67152723,12.84413846,8.04
152178849869,-0.20482635,-1.0062393,9.423403,-0.017753601,-0.046725463,-0.030551147,77.67152723,12.84413846,8.04
152178849890,-0.4296341,-0.9284744,9.825752,-0.0032150268,-0.03756256,0.0029266358,77.67152723,12.84413846,8.04
152178849911,-0.5005783,-1.1396408,10.100449,-0.01885376,-0.010691834,0.028814698,77.67152723,12.84413846,8.04
152178849933,-0.20614319,-1.2888367,9.794528,-0.0018737793,0.026808167,0.025151063,77.67155997,12.84416027,7.01
152178849954,-0.2419159,-1.6025314,10.042181,-0.009568786,0.013241577,-0.011856079,77.67155997,12.84416027,7.01
152178849976,-0.26153716,-1.4950927,10.075444,-0.01506958,0.017037963,-0.0047714235,77.67155997,12.84416027,7.01
152178849996,-0.103730775,-1.4460434,10.118635,0.015594482,-0.014720154,-0.04814148,77.67155997,12.84416027,7.01
152178850018,-0.34265137,-1.6167679,9.92984,0.040394593,-0.05515442,-0.018452454,77.67155997,12.84416027,7.01
152178850039,-0.2565109,-1.5363724,9.238077,0.03062439,-0.024490356,0.0439621,77.6716105,12.84419576,6.23
152178850060,-0.5656662,-1.1866608,11.233212,0.074359134,0.04977417,0.051290892,77.6716105,12.84419576,6.23
152178850081,0.11772461,-1.0843658,10.585833,0.13838196,0.074328616,-0.005627441,77.6716105,12.84419576,6.23
152178850103,-0.32171783,-2.0346742,10.170679,-0.05488739,0.032670595,-0.059257507,77.6716105,12.84419576,6.23
152178850124,0.18340759,-1.1493332,8.54715,-0.23129272,-0.05527954,-0.06133728,77.6716105,12.84419576,6.23
152178850145,-0.43334198,-0.15044709,9.822881,-0.3744858,-0.08435516,-0.015890503,77.67164923,12.84423352,6.26
152178850166,-0.97041017,-0.44177398,11.7637005,0.56781465,-0.07274933,-0.0025741577,77.67164923,12.84423352,6.26
152178850188,-1.2069428,-0.61956024,11.293268,-0.096661374,-0.04232941,0.11910095,77.67164923,12.84423352,6.26
152178850209,0.16665801,-0.11874237,9.635882,0.07741394,0.15997009,0.10664062,77.67164923,12.84423352,6.26
152178850230,0.585762,-0.36508483,10.310417,0.0303833,0.035243224,-0.1696991,77.67171669,12.84426936,6.3
152178850251,-0.7812576,-0.2355133,9.819293,-0.014576721,-0.166333,-0.05926056,77.67171669,12.84426936,6.3
152178850273,-0.86105955,-0.5275589,10.388066,0.016940307,-0.011428833,0.16600494,77.67171669,12.84426936,6.3
152178850294,0.043547057,-0.7290329,10.463679,-0.039495848,0.074819945,0.058503725,77.67171669,12.84426936,6.3
152178850315,0.068791196,-0.9745377,9.869062,0.007290649,0.0252182,-0.027250672,77.67171669,12.84426936,6.3
152178850336,-0.41479644,-0.959581,9.973871,0.0032546998,0.010803223,0.016241455,77.67177431,12.84430999,6.54
152178850358,-0.037568666,-1.1677582,9.851715,-0.0015060424,0.036824036,0.005001831,77.67177431,12.84430999,6.54
152178850379,0.050964355,-1.0923828,9.8024235,0.005088806,-0.032678224,-0.060969543,77.67177431,12.84430999,6.54
152178850400,-0.7476379,-0.87954104,10.6117935,0.0044754026,-0.08753357,-0.011001587,77.67177431,12.84430999,6.54
152178850422,-0.10803833,-1.4570526,8.625277,-0.010299683,-0.031575013,0.07645874,77.67177431,12.84430999,6.54
152178850443,-0.902095,-1.0081558,11.641665,-0.004560852,0.03413849,0.07059479,77.67177371,12.8443039,4.99
152178850464,0.38356933,-1.1244462,8.790257,-0.0067611695,0.035478212,0.009030151,77.67177371,12.8443039,4.99
152178850485,0.24526215,-2.0992813,7.593608,0.02475891,-0.006538391,-0.0073379516,77.67177371,12.8443039,4.99
152178850506,-0.4100113,-1.8834503,7.7620635,-0.0040740967,-0.0058044433,0.02685852,77.67177371,12.8443039,4.99
152178850528,-0.5803833,-0.891626,9.156958,0.026715089,0.024728393,0.055688478,77.67177371,12.8443039,4.99
152178850549,-0.43441924,-1.3112061,10.888286,-0.008834839,0.123809814,0.08574524,77.67182195,12.84433972,5.18
152178850570,0.14344788,-1.6052825,9.413231,-0.06637116,0.15141907,-0.016625976,77.67182195,12.84433972,5.18
152178850591,0.19824524,-0.8761948,10.608806,0.061776735,0.033773802,-0.19511262,77.67182195,12.84433972,5.18
152178850613,-0.61459655,-1.7251648,9.367407,0.023780823,-0.066027835,-0.10812988,77.67182195,12.84433972,5.18
152178850634,-0.7263428,-1.0549347,9.032773,-0.03668518,-0.028034974,-0.012960816,77.67187352,12.84438884,5.0
152178850655,-0.3207611,-1.1970688,9.827906,-0.006513977,0.016671753,-0.030307006,77.67187352,12.84438884,5.0
152178850676,-0.33044893,-1.4053634,10.0108385,0.0019134522,0.034503173,-0.038981628,77.67187352,12.84438884,5.0
152178850697,0.12717743,-1.3904098,9.94348,0.013272095,0.034503173,-0.09016876,77.67187352,12.84438884,5.0
152178850719,-0.30341187,-1.8177658,10.228224,0.022436524,-0.03328552,-0.15284424,77.67187352,12.84438884,5.0
152178850740,-0.21930237,-1.4789429,9.920984,0.038075257,-0.101091005,-0.14025421,77.67192339,12.84443079,5.3
152178850761,-0.8228943,-1.2128632,9.934748,-0.0012619018,-0.06847229,-0.015036011,77.67192339,12.84443079,5.3
152178850783,-0.29228514,-0.8115845,9.645572,0.02475586,-0.030358886,0.011593628,77.67192339,12.84443079,5.3
152178850804,-0.3652649,-0.8556137,9.783995,0.021340942,-0.036097717,-0.010513306,77.67192339,12.84443079,5.3
152178850825,-0.29563445,-1.1684754,9.614107,-0.016653443,-0.04501953,-0.0023269653,77.67192339,12.84443079,5.3
152178850846,-0.3858429,-1.2754333,9.734825,-0.03583374,-0.04611664,0.022099305,77.67196929,12.8444588,4.94
152178850868,-0.3042511,-1.3838288,9.60023,-0.0032150268,-0.040132143,0.0313797,77.67196929,12.8444588,4.94
152178850889,-0.23940277,-1.411348,9.522463,-0.0035842895,-0.03340912,0.071446225,77.67196929,12.8444588,4.94
152178850910,-0.27062836,-1.6111466,9.7567215,0.019384766,-0.03500061,0.062898256,77.67196929,12.8444588,4.94
152178850931,-0.5418579,-1.8235092,9.4738865,0.028668214,-0.00788269,0.11567535,77.67200672,12.84447863,3.8
152178850953,-0.47282562,-1.6753937,10.036801,-0.0051712035,0.03865509,0.16380921,77.67200672,12.84447863,3.8
152178850974,-0.23354188,-1.8474381,9.614347,-0.028379822,0.097544864,0.1524475,77.67200672,12.84447863,3.8
152178850995,-0.034577943,-1.705664,9.705391,-0.025813293,0.11085968,0.06998291,77.67200672,12.84447863,3.8
152178851016,0.13949737,-1.3841873,9.879232,0.013641357,0.09143219,-0.07440796,77.67200672,12.84447863,3.8
152178851037,0.13004608,-0.9202179,9.523661,0.040519714,0.040003967,-0.14453277,77.67203484,12.84449618,3.84
152178851059,-0.08865509,-1.3597825,10.2705765,0.03148041,-0.03792877,-0.25265807,77.67203484,12.84449618,3.84
152178851080,-1.3469193,-1.2014954,9.516602,9.4299315E-4,-0.003366089,-0.044970702,77.67203484,12.84449618,3.84
152178851101,-0.46229857,-0.8617142,9.75971,0.013151551,0.09180145,0.061306763,77.67203484,12.84449618,3.84
152178851123,0.04450531,-1.0627105,9.864874,-0.02544861,0.15239868,-0.013327027,77.67203484,12.84449618,3.84
152178851144,0.101573184,-0.986142,9.503917,-0.0030944825,0.15740661,-0.25583345,77.67206354,12.84451617,3.24
152178851165,0.0011947632,-0.11527252,10.661207,0.08657684,0.10536041,-0.45094603,77.67206354,12.84451617,3.24
152178851186,-0.6028732,-0.41401672,10.015503,0.075704955,0.031567384,-0.524617,77.67206354,12.84451617,3.24
152178851208,-0.5846863,-0.4002594,9.608365,0.025614928,0.05307312,-0.44862062,77.67206354,12.84451617,3.24
152178851229,-0.41718903,-0.5206207,10.195804,-0.025569152,0.056126405,-0.4107483,77.67210948,12.84453892,3.13
152178851250,-0.21977997,-0.32404786,10.051396,0.14973755,0.040246584,-0.51496583,77.67210948,12.84453892,3.13
152178851271,-0.44386902,-0.8249847,9.772154,0.11834411,-0.0034881593,-0.4897934,77.67210948,12.84453892,3.13
152178851292,-0.33942565,-1.1272004,10.117793,0.083891295,-0.04538269,-0.44605866,77.67210948,12.84453892,3.13
152178851314,-0.3835724,-1.0463196,9.689722,0.09207611,-0.0550354,-0.4199112,77.67210948,12.84453892,3.13
152178851335,-0.38261262,-1.1763687,10.289122,0.08621216,-0.06126251,-0.35051727,77.67215462,12.8445434,3.19
152178851356,-0.46337128,-0.85082704,9.731836,0.119441226,-0.06798401,-0.32180786,77.67215462,12.8445434,3.19
152178851377,-0.7022934,-1.1334183,8.202583,0.03527069,-0.06945038,-0.27526093,77.67215462,12.8445434,3.19
152178851399,-0.27876434,-1.4036881,12.281748,-0.2065033,-0.07714538,-0.2261444,77.67215462,12.8445434,3.19
152178851420,-0.66317445,-1.2923019,8.226628,0.21168213,-0.078733824,-0.22773743,77.67215462,12.8445434,3.19
152178851441,-0.6855469,-2.5021148,12.786871,0.07400055,0.007144165,-0.12632903,77.67218392,12.84452839,3.16
152178851462,-0.5880402,0.5138,9.503797,-0.11071472,0.04269409,-0.046676636,77.67218392,12.84452839,3.16
152178851484,-0.49938506,0.6682556,11.260129,0.13007355,-0.014726257,-0.14282227,77.67218392,12.84452839,3.16
152178851505,-0.5491562,-0.4586441,9.669736,-0.0028396607,0.05368347,-0.09749756,77.67218392,12.84452839,3.16
152178851526,-0.26022035,0.47060853,9.502363,-0.010786438,0.09204712,-0.10739593,77.67218392,12.84452839,3.16
152178851547,0.30759582,-0.8489105,11.452032,0.024884034,0.06260376,-0.29456177,77.67221694,12.84451954,3.06
152178851569,-0.16007996,-0.5568695,9.391934,0.04931488,-0.0458725,-0.3595581,77.67221694,12.84451954,3.06
152178851590,-0.6941589,-0.4640274,10.411876,0.06373291,-0.080322266,-0.2693985,77.67221694,12.84451954,3.06
152178851611,-0.67106783,0.3105301,9.633848,0.003866577,-0.09815979,-0.17006989,77.67221694,12.84451954,3.06
152178851632,-0.67693025,0.6705292,10.858734,0.019869994,-0.06981506,-0.078193665,77.67223443,12.84448674,3.11
152178851654,-0.29049072,0.4779068,9.954245,-0.0045547485,-0.045262147,-0.03568268,77.67223443,12.84448674,3.11
152178851675,0.3351105,-0.60664064,8.462561,8.1481936E-4,-0.030964661,-0.05217438,77.67223443,12.84448674,3.11
152178851696,-0.12466888,-0.5014755,9.140928,-0.014698791,-0.023155212,-0.03543701,77.67223443,12.84448674,3.11
152178851717,-1.0246079,0.10857391,10.709902,0.008877563,-0.01764984,-0.038734436,77.67223443,12.84448674,3.11
152178851739,-0.120478824,-0.33828583,9.700727,0.017550658,-0.012651062,0.025767516,77.67225299,12.84446614,3.03
152178851760,-0.7641495,0.13046876,9.871814,0.026470948,0.01605835,0.020266723,77.67225299,12.84446614,3.03
152178851781,0.09834442,-0.8946136,9.303159,-0.05219879,-0.03829956,-0.080760196,77.67225299,12.84446614,3.03
152178851802,-0.26919556,-0.70726013,9.920749,-0.00773468,-0.11623993,-0.096522525,77.67225299,12.84446614,3.03
152178851824,-0.6631714,-1.1918061,9.208166,0.018284608,-0.1123291,0.037124634,77.67225299,12.84446614,3.03
152178851845,-0.38751832,-2.0605195,9.581085,0.0017929077,-0.047213744,0.16307373,77.67226902,12.84443593,3.25
152178851866,-0.3488739,-1.614618,9.8805485,-0.025938416,-0.047583006,0.13485412,77.67226902,12.84443593,3.25
152178851887,-0.47174376,-1.7798386,10.199269,0.03917847,-0.05662384,0.16588898,77.67226902,12.84443593,3.25
152178851909,-0.78783876,-2.1647248,9.8652315,0.036976624,-0.041592408,0.2483551,77.67226902,12.84443593,3.25
152178851930,-0.7901093,-1.6475159,10.187428,-0.0197052,0.02400055,0.35622865,77.67228673,12.84441074,2.95
152178851951,-0.33894652,-1.6307694,9.137339,0.007658386,0.08813629,0.36930236,77.67228673,12.84441074,2.95
152178851972,0.27613068,-2.0338378,9.349101,-3.967285E-5,0.13370362,0.27584076,77.67228673,12.84441074,2.95
152178851994,0.939064,-1.9351349,9.571993,0.00533905,0.056614686,-0.013082886,77.67228673,12.84441074,2.95
152178852015,-0.7996826,-1.0928605,9.740331,-0.0072433474,0.056005858,-0.01869812,77.67228673,12.84441074,2.95
152178852036,-0.36383057,-1.5288346,10.540487,0.010218811,0.068222046,0.041523743,77.6723071,12.84439034,2.85
152178852057,0.0062194825,-1.2966095,9.7617445,-0.021420289,0.045495607,-0.0052627563,77.6723071,12.84439034,2.85
152178852079,0.22863159,-1.8917053,9.423281,0.053227235,0.014956665,-0.15235595,77.6723071,12.84439034,2.85
152178852100,-0.40618134,-2.4268615,9.76605,-0.0059051514,-0.0059295655,-0.19682464,77.6723071,12.84439034,2.85
152178852121,0.02117462,-1.9058243,9.628705,-0.030577088,-0.055397034,-0.20562287,77.6723071,12.84439034,2.85
152178852142,-0.5389862,-1.978563,9.946589,0.025370788,-0.07910309,-0.2073349,77.67232462,12.84437613,2.0
152178852164,-0.326622,-1.5714264,10.171038,-0.009811401,-0.090586856,-0.1598053,77.67232462,12.84437613,2.0
152178852185,-0.1956131,-1.7408371,9.699411,0.0030151368,-0.023638915,-0.042277526,77.67232462,12.84437613,2.0
152178852206,-0.122750856,-2.0727234,9.981646,0.0030166626,0.037680052,0.059724428,77.67232462,12.84437613,2.0
152178852227,-0.19824676,-0.8503494,9.870976,-0.003579712,0.05735626,0.07633362,77.67232462,12.84437613,2.0
152178852249,-0.07967987,-0.66442716,9.880667,0.007897949,0.014343262,0.040420532,77.67233532,12.84437089,0.85
152178852270,-0.11880493,-0.75451815,9.861168,-0.0030975342,0.014347839,0.0026809692,77.67233532,12.84437089,0.85
152178852291,-0.39577484,-0.66729736,9.631694,0.0014266968,-0.025590515,-0.0062347413,77.67233532,12.84437089,0.85
152178852312,-0.14045867,-0.6456436,9.924217,0.0055801393,-0.0701828,-0.0011062622,77.67233532,12.84437089,0.85
152178852334,0.06472168,-0.6858429,9.938097,-0.005052185,-0.03438568,0.0018234253,77.67233776,12.84437285,0.0
152178852355,-0.06221466,-0.7264023,9.768684,0.003869629,-0.023391724,6.0577394E-4,77.67233776,12.84437285,0.0
152178852376,0.062451173,-0.7652847,9.746191,8.239746E-5,-0.009588623,0.008909607,77.67233776,12.84437285,0.0
152178852398,0.07872009,-0.77078855,9.729082,0.008392334,-0.03279724,0.0074417116,77.67233776,12.84437285,0.0
152178852419,0.16103669,-0.6013733,9.6193695,-0.01726837,-0.030111695,-9.155274E-6,77.67233776,12.84437285,0.0
152178852440,0.30041656,-0.651149,9.974823,4.5013428E-4,-0.015574646,-0.004522705,77.67233774,12.84438315,0.0
152178852461,0.23114471,-0.811586,9.71628,8.239746E-5,-0.018994141,-0.0035476685,77.67233774,12.84438315,0.0
152178852483,0.23425445,-0.6229111,9.606214,0.001550293,-0.025346374,-0.0040390017,77.67233774,12.84438315,0.0
152178852504,0.3692108,-0.7558304,9.924579,5.6610105E-4,-0.010813904,-0.0026916503,77.67233774,12.84438315,0.0
152178852525,0.30939025,-0.7637283,9.802783,6.942749E-4,-0.004096985,-0.0020828247,77.67233774,12.84438315,0.0
152178852546,0.2207367,-0.62985075,9.90053,0.002279663,-0.019360352,-0.00892334,77.67234064,12.84439093,0.0
152178852567,0.37878266,-0.797229,9.828265,-6.515503E-4,-0.018502807,-0.005015564,77.67234064,12.84439093,0.0
152178852589,0.39517364,-0.65521395,9.852674,6.9274905E-4,-0.001286316,-0.010264588,77.67234064,12.84439093,0.0
152178852610,0.4274765,-0.79387665,9.793208,0.0014266968,0.0045669554,-0.0035491944,77.67234064,12.84439093,0.0
152178852631,0.32446593,-0.61608887,9.601906,4.470825E-4,0.0115356445,-0.006968689,77.67234115,12.8443956,0.0
152178852652,0.34097442,-0.8022522,9.891436,0.004968262,0.008850098,-0.0055023194,77.67234115,12.8443956,0.0
