timestamp,accx,accy,accz,gyrx,gyry,gyrz,longitude,latitude,speed
152178985702,0.1529007,-0.6576065,9.569601,-0.0027420043,0.008070374,-0.005377197,77.64335368,12.87930989,0.0
152178985720,-0.44447023,-0.5019531,9.585513,9.6588134E-4,-0.007850647,-0.0053710938,77.64335368,12.87930989,0.0
152178985742,-0.19561462,-0.610109,10.012871,3.5400392E-4,-0.009803772,-0.0043945313,77.64335368,12.87930989,0.0
152178985764,-0.310112,-0.708696,9.713529,9.689331E-4,-0.009312439,-0.004760742,77.64335368,12.87930989,0.0
152178985784,-0.40067902,-0.34582216,10.250119,-8.605957E-4,-0.0037002563,-0.004638672,77.64335368,12.87930989,0.0
152178985805,-0.4638489,-0.62231445,9.527249,2.3498535E-4,-0.009677124,-0.007817077,77.64335318,12.87931143,0.0
152178985826,-0.11150513,-0.60173494,9.915962,0.0025558472,0.011195374,-0.0048828125,77.64335318,12.87931143,0.0
152178985848,-0.7213165,-0.22677918,9.883423,0.002922058,0.025239563,6.1035157E-6,77.64335318,12.87931143,0.0
152178985869,-0.21978302,-0.6833283,9.254827,0.0068344115,-0.0012634278,-0.0030502318,77.64335318,12.87931143,0.0
152178985890,-0.32434693,-0.5477737,9.973389,0.003413391,-0.0065063476,-0.001953125,77.64335296,12.87931227,0.0
152178985912,-0.6270431,-0.31579438,10.0082035,0.002069092,-0.0045562745,-0.0029281615,77.64335296,12.87931227,0.0
152178985933,-0.1265808,-0.78346556,9.440268,0.008908081,-0.0072433474,-0.0276062,77.64335296,12.87931227,0.0
152178985954,-0.04187317,-0.5124817,10.011675,0.023814391,-0.02275238,-0.10457458,77.64335296,12.87931227,0.0
152178985975,-0.52713776,-0.3732193,10.129997,0.01599579,-0.043525696,-0.14550324,77.64335296,12.87931227,0.0
152178985996,-0.9848877,-0.31782532,9.884137,0.0034057617,-0.012132263,-0.089668274,77.64335286,12.87931277,0.0
152178986018,-0.50488585,-0.29485473,9.961069,0.0035324097,0.0039886474,0.022479247,77.64335286,12.87931277,0.0
152178986039,-0.27625275,-0.20500335,9.9574795,0.0049987794,8.19397E-4,-0.004389954,77.64335286,12.87931277,0.0
152178986060,-0.41108856,-0.39344025,9.794644,-0.0015975952,-0.0054092407,-0.0065963743,77.64335286,12.87931277,0.0
152178986082,-0.37375945,-0.38650054,10.182401,8.468628E-4,-0.016278077,-0.0056152344,77.64335286,12.87931277,0.0
152178986103,-0.30998993,-0.48879394,9.767845,-3.7536622E-4,-0.011390686,-0.009036255,77.64335206,12.87931511,0.0
152178986124,-0.46229553,-0.5616547,9.974464,3.5705566E-4,-0.010050965,-0.0053710938,77.64335206,12.87931511,0.0
152178986145,-0.28546602,-0.5720642,9.76665,-6.195068E-4,0.0032531738,-0.0053710938,77.64335206,12.87931511,0.0
152178986167,-0.53443754,-0.4750351,10.009642,9.6740725E-4,0.0013031006,-0.0053710938,77.64335206,12.87931511,0.0
152178986188,-0.3929016,-0.2922226,9.771436,0.0019424439,-0.019821167,-0.005493164,77.64335151,12.87931678,0.0
152178986209,-0.35114747,-0.37214202,9.940008,0.0020645142,-0.02250824,-0.006591797,77.64335151,12.87931678,0.0
152178986230,-0.43693084,-0.4095947,9.858656,0.002923584,-0.021652222,-0.006591797,77.64335151,12.87931678,0.0
152178986252,-0.17264405,-0.20572205,9.723699,0.006098938,-0.01615448,-0.010261536,77.64335151,12.87931678,0.0
152178986273,-0.12610321,-0.018844604,9.848364,0.016970824,0.012054443,-0.01587677,77.64335151,12.87931678,0.0
152178986294,-0.68913424,0.8759521,10.347148,0.012576294,0.00838623,-0.038964845,77.64335117,12.87931789,0.0
152178986315,0.38321075,0.54706115,9.456064,0.013059998,0.032701112,-0.04886322,77.64335117,12.87931789,0.0
152178986337,-0.37423706,0.5890549,9.712809,0.010621643,0.030622864,-0.07708283,77.64335117,12.87931789,0.0
152178986358,-0.32733765,0.5901306,9.554166,0.0064666746,-0.017622376,-0.16261292,77.64335117,12.87931789,0.0
152178986379,-0.3334427,0.38949585,9.594365,0.035298157,-0.05268707,-0.18154144,77.64335117,12.87931789,0.0
152178986400,-0.3032898,0.4404602,9.290596,0.019413758,-0.06783752,-0.21159515,77.64335101,12.87931854,0.0
152178986422,-0.84454805,0.79004824,9.286532,0.0177063,-0.027763367,-0.03860321,77.64335101,12.87931854,0.0
152178986443,-0.5758362,1.0399811,9.622843,0.01159668,-0.00932312,0.03713379,77.64335101,12.87931854,0.0
152178986464,-0.5930618,0.96221316,9.542442,-0.0045288084,0.020481873,0.08306427,77.64335101,12.87931854,0.0
152178986485,0.085185245,0.8686554,9.843579,0.010374451,-0.033872984,-0.042149354,77.64335101,12.87931854,0.0
152178986507,-0.28881532,0.5450241,9.1988325,0.0058547975,-0.055615235,-0.0014663696,77.64335306,12.87931728,0.51
152178986528,-0.3052063,0.5306686,10.145551,-0.006112671,-0.0011352539,0.08990631,77.64335306,12.87931728,0.51
152178986549,-0.26417083,0.6553345,9.479273,-0.016133118,0.033187866,0.08917236,77.64335306,12.87931728,0.51
152178986570,-0.18532714,0.9412781,10.244975,0.0023117065,0.043814085,3.7078856E-4,77.64335306,12.87931728,0.51
152178986592,-0.4510498,0.44871673,9.237358,-2.548218E-4,0.051878355,-0.009892273,77.64336727,12.87930835,1.74
152178986613,-0.14788055,0.6428925,10.186111,-0.0035537719,0.016203308,-0.09846344,77.64336727,12.87930835,1.74
152178986634,-0.39697114,0.20991059,9.815463,-0.008071899,-0.016156007,-0.077330016,77.64336727,12.87930835,1.74
152178986655,-0.13674927,0.6833313,10.082861,0.010011291,0.0031433105,-0.06486969,77.64336727,12.87930835,1.74
152178986677,-0.484787,0.20835419,9.582044,0.02527771,-0.0098022465,-0.102742,77.64336727,12.87930835,1.74
152178986698,-0.108874515,0.19591065,10.005216,-0.005874634,-0.07662964,-0.12729493,77.64339433,12.87929111,3.37
152178986719,-0.54544526,0.051387023,9.385115,0.005975342,-0.08090363,-0.0647461,77.64339433,12.87929111,3.37
152178986741,-0.33355865,0.420961,10.059891,8.4533694E-4,-0.04974823,0.03224945,77.64339433,12.87929111,3.37
152178986762,-0.39458007,0.26638183,9.929842,-0.0069702147,-0.030329894,-0.010868835,77.64339433,12.87929111,3.37
152178986783,-0.07872772,-0.047677614,9.4980545,0.0056121824,-0.07137604,-0.01563263,77.64339433,12.87929111,3.37
152178986804,-0.5547775,-0.23766938,9.33259,0.010864258,-0.09385834,0.016366577,77.64342947,12.87926615,4.25
152178986826,-0.9486359,-0.8465195,10.115642,-0.032258607,-0.048164368,0.15160218,77.64342947,12.87926615,4.25
152178986847,0.34696198,-1.0149765,9.128125,0.0117202755,0.0075332643,0.19912568,77.64342947,12.87926615,4.25
152178986868,-0.06963196,-0.7761704,9.155884,0.013919068,0.03111267,0.134375,77.64342947,12.87926615,4.25
152178986889,-0.5192444,-1.3359741,9.269539,-0.017355347,0.14118652,0.20670013,77.64347104,12.87924019,4.7
152178986911,0.641037,-0.450029,9.935463,-0.027250672,0.1562088,0.009405518,77.64347104,12.87924019,4.7
152178986932,0.63277894,-0.8986832,10.06001,0.017951965,0.058476258,-0.19241638,77.64347104,12.87924019,4.7
152178986953,0.10540466,-0.58749694,8.9301195,0.04812622,-0.032528687,-0.1523468,77.64347104,12.87924019,4.7
152178986974,0.08039703,-0.49441528,8.981684,-0.009049987,-0.04511261,-0.110069275,77.64347104,12.87924019,4.7
152178986995,0.62883455,-0.9969101,7.876082,-0.015892029,-0.029962158,-0.049473573,77.64351362,12.87921653,4.58
152178987017,-0.8263626,0.16229248,11.37319,-0.060961913,-0.050730895,-0.09883118,77.64351362,12.87921653,4.58
152178987038,-0.6002396,0.279422,10.583559,0.10237579,-0.077610776,-0.08454132,77.64351362,12.87921653,4.58
152178987060,-0.6660431,0.22941132,9.719271,0.084170535,-0.0611145,0.050816346,77.64351362,12.87921653,4.58
152178987080,-0.24610443,0.17928466,8.712015,-0.10738373,-0.096177675,-0.011845398,77.64351362,12.87921653,4.58
152178987102,-0.6777649,0.2538193,10.154648,0.02552185,-0.03656006,0.07732697,77.64355434,12.87919311,4.73
152178987123,-0.5162506,0.03164673,10.2496395,-0.015034485,0.023173522,0.08880768,77.64355434,12.87919311,4.73
152178987144,0.2769684,-0.2313263,9.610156,-0.0100219725,-0.007246399,-0.009892273,77.64355434,12.87919311,4.73
152178987166,0.39122468,-0.9674759,8.714766,0.012088013,-0.10350494,-0.042999268,77.64355434,12.87919311,4.73
152178987187,-0.44841614,-1.5667603,9.397799,-0.031402588,-0.040100098,0.14769593,77.64359492,12.87917108,4.77
152178987208,-0.080401614,-0.7825119,9.538015,-1.373291E-5,0.004231262,0.13620758,77.64359492,12.87917108,4.77
152178987229,-0.36323088,-0.82749784,9.525456,0.010496521,-0.004428101,0.069509886,77.64359492,12.87917108,4.77
152178987251,-0.63493955,-0.57158357,10.072812,-0.0069717406,0.114552304,0.25838622,77.64359492,12.87917108,4.77
152178987272,0.78460693,-0.544664,10.435684,-0.021632385,0.16195527,0.042999268,77.64359492,12.87917108,4.77
152178987293,0.42149353,-0.47443694,10.073529,0.0076904297,0.04943695,-0.16309662,77.64363629,12.87915296,4.47
152178987314,-0.3455246,-0.64169466,9.706947,0.028700257,-0.12463989,-0.25533906,77.64363629,12.87915296,4.47
152178987336,-0.97615206,-0.5531586,10.134306,-7.6293945E-6,-0.078337096,0.0941864,77.64363629,12.87915296,4.47
152178987357,-0.22552338,-0.6859619,9.352811,-0.005628967,0.007170105,0.1067688,77.64363629,12.87915296,4.47
152178987378,-0.09918518,-0.3550354,9.814505,0.016848754,0.015470887,0.054728698,77.64363629,12.87915296,4.47
152178987399,-0.46851653,-0.30287018,10.107147,-0.0040359497,0.031721495,0.024801636,77.64367531,12.87913733,4.15
152178987421,-0.6187851,0.05569153,9.216301,-0.02211914,0.085595705,0.05130005,77.64367531,12.87913733,4.15
152178987442,0.22934723,-0.22893219,10.467987,0.029681396,0.09964295,-0.060102843,77.64367531,12.87913733,4.15
152178987463,0.5307251,-0.82450867,9.892034,0.010861206,0.015965272,-0.22442779,77.64367531,12.87913733,4.15
152178987484,-0.82337034,0.076394655,9.9676485,0.012820435,-0.0657547,-0.1455017,77.64367531,12.87913733,4.15
152178987506,-0.09739075,-0.4616348,9.714725,0.044825744,-0.0605072,-0.09834595,77.64371123,12.87912205,3.96
152178987527,-0.9053253,-0.3559906,9.4222,-0.024316406,-0.023001099,0.0039123534,77.64371123,12.87912205,3.96
152178987548,-0.15625457,0.25286254,10.88374,0.013916016,0.04967804,0.015760804,77.64371123,12.87912205,3.96
152178987569,0.32566375,-0.4162918,9.328046,0.00854187,0.02121582,-0.12155609,77.64371123,12.87912205,3.96
152178987591,0.01914215,-0.74542695,7.9085035,0.014530945,-0.056228638,-0.1788559,77.64374574,12.87910532,4.21
152178987612,-0.9064056,-0.06275177,10.114207,-6.240845E-4,-0.060383607,-0.055584718,77.64374574,12.87910532,4.21
152178987633,-0.51960295,0.33864594,11.638435,0.002923584,0.012910461,0.033226013,77.64374574,12.87910532,4.21
152178987654,-0.24060059,-0.0107070925,9.295146,0.002067566,0.027932739,-0.05717163,77.64374574,12.87910532,4.21
152178987676,0.20937195,-1.2690918,7.935782,0.0142852785,-4.043579E-4,-0.1152008,77.64374574,12.87910532,4.21
152178987697,-0.24909362,-0.30095977,9.2706175,-0.023460388,-0.047917176,-0.12680665,77.64378145,12.87908561,4.24
152178987718,-0.5277389,0.15320282,10.933512,0.021246338,-0.07345428,-0.097976685,77.64378145,12.87908561,4.24
152178987740,-0.57272494,0.06514587,11.662363,0.016241455,-0.022512818,0.007575989,77.64378145,12.87908561,4.24
152178987761,-0.53802794,0.5159515,10.518354,-0.028468322,0.01950531,0.017227173,77.64378145,12.87908561,4.24
152178987782,-0.6545593,0.42993164,10.257298,7.247925E-4,0.0064331056,-0.07623291,77.64378145,12.87908561,4.24
152178987803,-1.1595643,0.3239273,12.064237,-0.005628967,-0.04156647,-0.10176544,77.64381324,12.87906446,4.0
152178987825,-0.42113954,0.3902115,10.937938,-0.015522766,-0.040834047,-0.021128844,77.64381324,12.87906446,4.0
152178987846,0.6941559,-0.9128021,8.038313,-0.0040390017,-0.024459839,-0.015267944,77.64381324,12.87906446,4.0
152178987867,-1.2582687,0.26135713,11.009242,-0.009785461,0.0065628053,0.014907837,77.64381324,12.87906446,4.0
152178987888,0.6587418,-0.6550949,8.452151,-0.005993652,0.019996643,-0.01038208,77.643843,12.87904298,3.76
152178987910,-0.5326416,0.21708985,10.891275,-0.028837586,0.02292633,-0.04825592,77.643843,12.87904298,3.76
152178987931,-0.12598419,-0.21780547,8.607088,-0.025784303,-0.014695739,-0.068287656,77.643843,12.87904298,3.76
152178987952,0.048571777,-0.69445497,10.288643,0.015016174,-0.018479919,-0.058514405,77.643843,12.87904298,3.76
152178987973,-0.11581268,-0.44237214,9.772392,0.28269807,-0.0041900636,-0.0026855469,77.643843,12.87904298,3.76
152178987994,0.2996994,-1.2324845,9.641866,-0.12925415,-0.055131532,-0.09748535,77.64387457,12.87901929,4.41
152178988016,-0.66999054,-0.2761902,9.495305,-0.047283936,-0.0776062,-0.009161377,77.64387457,12.87901929,4.41
152178988037,-0.42113954,-0.88276976,9.542439,0.07329254,0.042596437,0.07659149,77.64387457,12.87901929,4.41
152178988058,0.4143158,-0.88719636,9.270137,-0.13682556,0.014125061,-0.0020767213,77.64387457,12.87901929,4.41
152178988080,-0.47306213,-0.5444244,10.011912,-0.034088135,0.014251709,-0.054118346,77.64387457,12.87901929,4.41
152178988101,0.1732376,-1.2958924,9.665316,0.042626955,-0.021899413,-0.05839386,77.64390908,12.87899152,4.57
152178988122,0.13722992,-0.60592043,9.467069,-0.013078308,-0.06282501,-0.10493775,77.64390908,12.87899152,4.57
152178988143,-0.36371002,-1.1537597,9.919789,0.030166626,-0.10656281,-0.018566895,77.64390908,12.87899152,4.57
152178988165,-0.93774873,-1.029335,9.510019,-0.019180298,-0.018605042,0.12216339,77.64390908,12.87899152,4.57
152178988186,0.005264282,-0.98542327,9.418016,-0.033110045,0.0671524,0.15417023,77.64390908,12.87899152,4.57
152178988207,0.2141571,-0.47156525,10.110019,0.11372833,0.11027832,0.043121338,77.64394149,12.87896243,4.36
152178988228,0.6129196,-1.2419342,10.185992,-0.113493346,0.05590973,-0.15148774,77.64394149,12.87896243,4.36
152178988250,0.3394211,-0.44357148,9.138771,0.095890805,-0.11010285,-0.20976563,77.64394149,12.87896243,4.36
152178988271,-1.2751373,-0.9324234,10.135501,0.0692627,-0.05598297,-0.06829681,77.64394149,12.87896243,4.36
152178988292,0.13842162,-0.7934006,8.754842,-0.13694915,-0.09385376,0.09381714,77.64397049,12.87893413,4.17
152178988313,-0.7837723,-0.102113344,9.8018265,0.114587404,-0.037532043,0.01013794,77.64397049,12.87893413,4.17
152178988335,-0.5045273,-0.569191,10.597081,0.076467894,0.045037843,0.16381988,77.64397049,12.87893413,4.17
152178988356,0.3816513,-1.0028915,9.893947,-0.18729095,0.03404541,0.0526474,77.64397049,12.87893413,4.17
152178988377,-0.21200562,0.2682953,7.36342,0.04031677,0.024516296,-0.0401886,77.64397049,12.87893413,4.17
152178988398,-0.061857603,-1.5887725,11.528006,-0.14061737,-0.0401062,-0.0056167603,77.64399941,12.87890599,4.13
152178988420,0.109947205,-0.2885147,9.228984,-0.02626953,-0.12073211,-0.057907104,77.64399941,12.87890599,4.13
152178988441,-0.65384066,0.026860047,9.6988125,0.19387817,-0.06978913,0.08282318,77.64399941,12.87890599,4.13
152178988462,-0.04701843,-1.3106095,8.169561,-0.052171327,-0.013473511,0.21488647,77.64399941,12.87890599,4.13
152178988483,0.17216186,-0.08069916,9.839513,0.029434204,0.018772889,0.11605225,77.64399941,12.87890599,4.13
152178988505,0.32039642,-0.6658615,8.620491,0.15135804,0.052854918,0.13413087,77.64402793,12.87887929,3.76
152178988526,0.20733643,-0.6468369,8.185471,-0.11569519,0.110154726,0.1073761,77.64402793,12.87887929,3.76
152178988547,-0.33511811,-0.08117676,7.750815,-0.03030548,0.08828735,-0.011361694,77.64402793,12.87887929,3.76
152178988568,-0.27864686,0.30442658,11.83417,0.002684021,0.026348878,-0.12937622,77.64402793,12.87887929,3.76
152178988590,0.3802185,-0.7579864,7.9008455,-0.04533081,-0.12073517,-0.15259247,77.64405816,12.87885467,4.27
152178988611,-1.8640106,0.58486784,11.313013,0.050813295,0.02256012,0.13425446,77.64405816,12.87885467,4.27
152178988632,0.6370865,-0.38326874,9.678594,-0.034577943,0.0921936,0.03945923,77.64405816,12.87885467,4.27
152178988653,0.7329208,-0.26865387,8.857495,0.02308197,-0.06026306,-0.19241638,77.64405816,12.87885467,4.27
152178988675,-0.5995224,-0.35395813,10.453626,0.083676144,-0.12293396,-0.089668274,77.64405816,12.87885467,4.27
152178988696,-0.6579071,-0.12867431,10.065274,-0.021870423,-0.11119995,0.06987152,77.64409199,12.87882865,4.55
152178988717,-0.7354355,-0.07124939,10.208005,0.013432312,-0.057447813,0.11861725,77.64409199,12.87882865,4.55
152178988738,-0.64103544,-0.073158264,9.79285,0.049221803,-0.021533202,0.11360779,77.64409199,12.87882865,4.55
152178988760,-0.46707916,-0.06550293,10.195204,-0.07024689,0.07203674,0.17750244,77.64409199,12.87882865,4.55
152178988781,0.6279953,-0.2722412,9.150019,-0.019429017,0.121514894,0.046546936,77.64409199,12.87882865,4.55
152178988802,0.49985808,-0.11204376,10.415703,0.011842346,0.018409729,-0.12913056,77.64412972,12.87880058,4.83
152178988823,-0.11856689,-0.23216248,10.198794,0.0035369874,-0.14125824,-0.123143,77.64412972,12.87880058,4.83
152178988845,-0.69044954,-0.32033843,9.578456,0.013674927,-0.15237427,0.0599823,77.64412972,12.87880058,4.83
152178988866,-0.7082779,-0.08883057,9.261289,0.011352539,-0.058546446,0.17713776,77.64412972,12.87880058,4.83
152178988887,-0.097868346,-0.4402191,9.838315,0.004386902,0.02317505,0.19350739,77.64416917,12.87877309,4.86
152178988908,-0.2997055,-0.21098939,9.742719,0.022834778,5.783081E-4,0.0962616,77.64416917,12.87877309,4.86
152178988930,-0.46791688,-0.6168106,9.810559,0.032244872,0.06751557,0.20975342,77.64416917,12.87877309,4.86
152178988951,-0.40426788,-0.7905304,11.063082,-0.046179198,0.09256287,0.10029449,77.64416917,12.87877309,4.86
152178988972,0.20315094,-0.7173111,9.214867,0.007933045,0.07851257,0.056555174,77.64416917,12.87877309,4.86
152178988993,-0.2423935,-0.5525589,9.2261095,0.03297577,0.05505829,-0.009526062,77.64421144,12.87874729,4.9
152178989015,-0.09296417,-0.87726897,10.147226,0.009027099,0.00912323,-0.005125427,77.64421144,12.87874729,4.9
152178989036,-0.64247435,-1.1943161,9.002144,-0.029327393,0.025244141,0.04862213,77.64421144,12.87874729,4.9
152178989057,-0.43035126,-0.79328,9.39014,-0.045689393,0.08498535,0.07769165,77.64421144,12.87874729,4.9
152178989078,-0.12167511,-0.6859619,9.891795,0.029188538,0.12688904,0.02186432,77.64421144,12.87874729,4.9
152178989100,0.12885132,-0.81792605,10.523021,0.006225586,0.0640976,-0.1608963,77.64425369,12.87872653,4.48
152178989121,-0.32733917,-0.5176285,9.6695,0.015505982,-0.0639267,-0.2243042,77.64425369,12.87872653,4.48
152178989142,-0.93296355,-0.57003176,9.957596,0.006222534,-0.07724152,-0.071221925,77.64425369,12.87872653,4.48
152178989163,-0.34528503,-0.33708802,9.421605,0.03554077,-0.074064635,-0.04397583,77.64425369,12.87872653,4.48
152178989185,-0.4368103,-0.60364836,9.728125,0.034687806,-0.10521851,-0.040800475,77.64425369,12.87872653,4.48
152178989206,-1.1014175,-0.29808348,9.645093,-0.010394287,-0.07797241,0.07488251,77.6442947,12.87870844,4.7
152178989227,-0.5196045,-0.71025085,10.329201,0.024792481,-0.055371094,0.088198856,77.6442947,12.87870844,4.7
152178989248,-0.45870513,-0.51188356,9.381285,-0.01796875,-0.030082703,0.10114441,77.6442947,12.87870844,4.7
152178989270,-1.140419,0.027575683,9.617455,-0.045573425,0.0587204,0.1888626,77.6442947,12.87870844,4.7
152178989291,0.13507386,-0.6023346,10.045649,0.0010940551,0.052244566,0.06596832,77.6443324,12.87869136,3.97
152178989312,-0.80530703,0.29126891,10.523021,0.06950531,0.011315918,0.012463379,77.6443324,12.87869136,3.97
152178989334,-0.46109924,-1.1339004,9.351735,-0.01588745,0.032577515,0.06449127,77.6443324,12.87869136,3.97
152178989355,-0.5804993,-0.022550965,9.493269,-0.06303711,0.08290863,0.061320495,77.6443324,12.87869136,3.97
152178989376,-0.24167481,0.48616332,12.288687,0.03578644,0.024391174,-0.10127716,77.6443324,12.87869136,3.97
152178989397,-1.1842086,0.3340973,12.219053,0.018681336,-0.01908722,-0.06303711,77.6443713,12.87867544,4.17
152178989419,-0.9669403,0.27678832,12.1359005,0.0076919557,-0.0012573242,-0.016490173,77.6443713,12.87867544,4.17
152178989440,-0.7730011,0.19399872,12.48992,0.019169617,-0.011151123,-0.06486817,77.6443713,12.87867544,4.17
152178989461,-0.27888337,0.43878633,11.021683,-0.021998595,-0.07381897,-0.07488708,77.6443713,12.87867544,4.17
152178989482,-0.05180664,-0.7997376,8.569281,0.015507507,-0.06832428,-0.020524597,77.6443713,12.87867544,4.17
152178989504,-1.4032714,0.11563416,9.304716,0.01171875,0.005221558,0.10212555,77.64441071,12.87865914,4.37
152178989525,-0.124069214,0.12125702,10.811836,0.023449708,0.07472382,0.050209045,77.64441071,12.87865914,4.37
152178989546,-0.09738922,-0.2100296,9.359512,-0.010398865,-0.01872406,-0.12277527,77.64441071,12.87865914,4.37
152178989567,-0.51625216,-0.34067994,10.47241,-0.011247253,-0.060380556,-0.06792297,77.64441071,12.87865914,4.37
152178989589,-1.0206604,0.0562912,9.504396,-0.01454773,-0.047679137,0.021014404,77.64445203,12.87864092,4.75
152178989610,-0.2513687,-0.31579286,9.170359,-0.029446412,-0.022019958,0.021128844,77.64445203,12.87864092,4.75
152178989631,-0.6912872,0.08237152,10.407927,-0.030300904,0.01534729,0.05985565,77.64445203,12.87864092,4.75
152178989652,-0.7266998,0.24771576,10.149859,0.050813295,0.013278198,-0.017341614,77.64445203,12.87864092,4.75
152178989674,-0.75062865,-0.076272584,10.440828,-0.034208678,0.013644409,0.008673096,77.64445203,12.87864092,4.75
152178989695,-0.4503296,0.042295836,9.412031,0.006343079,-0.002355957,-0.033712767,77.64449537,12.87862291,4.95
152178989716,-0.6972702,-0.08943176,10.057019,0.05313263,-0.007853699,-0.013313293,77.64449537,12.87862291,4.95
152178989737,-0.56829834,0.18526764,10.167091,-0.015034485,-0.016032409,-0.012460327,77.64449537,12.87862291,4.95
152178989759,-0.7482376,0.31962126,10.053789,0.029554749,0.0038711547,0.0019561767,77.64449537,12.87862291,4.95
152178989780,-0.24071808,-0.08990936,9.431294,-0.007948304,-0.0117584225,-0.030903626,77.64449537,12.87862291,4.95
152178989801,-0.6500122,-0.09062652,10.018972,0.019903565,-0.00431366,-0.01282196,77.64454496,12.87860264,5.07
152178989822,-0.22385101,-0.29497528,9.514925,0.008177185,-0.0203125,-0.03127136,77.64454496,12.87860264,5.07
152178989844,-0.6631714,0.06095581,9.845492,-0.019799804,-0.06257935,-0.039089967,77.64454496,12.87860264,5.07
152178989865,-0.6436707,-0.012863159,9.904956,0.008538818,-0.073820494,0.018203735,77.64454496,12.87860264,5.07
152178989886,-0.9177704,0.027098084,9.671293,-0.018945312,-0.020799255,0.0908844,77.64454496,12.87860264,5.07
152178989907,-0.43322143,-0.32213134,9.27289,-0.033972166,0.0593338,0.10322265,77.64458796,12.8785845,5.07
152178989929,-0.3031723,-0.28983155,9.642703,-0.03384552,0.06250916,-0.0075698853,77.64458796,12.8785845,5.07
152178989950,-0.42736205,-0.07364044,9.921704,0.033343505,0.024394225,-0.048986815,77.64458796,12.8785845,5.07
152178989971,-0.3352356,-0.005799866,10.267111,0.02454834,-0.005041504,-0.03249359,77.64458796,12.8785845,5.07
152178989992,-0.6120865,0.08739929,10.139572,0.020759583,-0.044740297,-0.057536315,77.64464122,12.87856505,5.7
152178990014,-0.5933029,-0.32021943,9.865114,0.0123321535,-0.03313904,0.012953186,77.64464122,12.87856505,5.7
152178990035,-0.5057251,-0.43710786,9.48968,0.010987854,0.011564637,0.040675353,77.64464122,12.87856505,5.7
152178990056,-0.53371733,-0.20751648,10.274046,-0.0245636,0.023286438,-0.008917237,77.64464122,12.87856505,5.7
152178990077,-0.4624176,-0.16205749,10.120905,0.03163147,-0.0040664673,-0.049353026,77.64464122,12.87856505,5.7
152178990099,-0.26345062,-0.122212216,9.695826,-0.0069717406,-0.030328369,-0.030661011,77.64469175,12.87854553,6.11
152178990120,-0.40199584,-0.09972076,10.048523,-0.035188295,-0.050361633,-0.030908203,77.64469175,12.87854553,6.11
152178990141,-0.44195253,-0.6019745,9.795484,0.01916809,-0.07186432,-0.015022278,77.64469175,12.87854553,6.11
152178990163,-0.92518616,-0.61944425,10.05295,0.007563782,-0.029595947,0.06278534,77.64469175,12.87854553,6.11
152178990184,-0.31992036,-0.3754959,9.886289,-0.018936157,0.039779663,0.09381561,77.64469175,12.87854553,6.11
152178990205,-0.025724793,-0.25250092,9.429021,0.065597534,-0.038394164,-0.07488861,77.64473691,12.87853373,5.17
152178990226,-0.6010788,-0.77688754,9.70623,-0.026393127,-0.09764099,0.011602784,77.64473691,12.87853373,5.17
152178990247,-1.1901916,-0.7832306,10.476004,-0.027244568,-0.06111603,0.089660645,77.64473691,12.87853373,5.17
152178990269,-0.27457732,-1.6602005,8.302843,0.0071990965,0.056158446,0.18654327,77.64473691,12.87853373,5.17
152178990290,0.0830307,-1.5529999,9.24657,-0.053753663,0.107954405,0.08697815,77.64478173,12.87851749,5.17
152178990312,-0.31358185,-1.088913,8.823639,0.056066893,0.08975067,7.30896E-4,77.64478173,12.87851749,5.17
152178990333,-0.26883394,-1.1452621,9.530241,-0.0024475097,-0.0010131836,-0.0856369,77.64478173,12.87851749,5.17
152178990354,-0.49316406,-0.8593216,9.641505,-0.0024490356,-0.06392364,-0.06499024,77.64478173,12.87851749,5.17
152178990375,-0.8097351,-0.85872346,9.275286,0.0071990965,-0.034719847,0.07182465,77.64478173,12.87851749,5.17
152178990396,-0.6276352,-1.1122421,9.111372,0.018315125,0.019746399,0.06938477,77.64484684,12.87849628,5.21
152178990418,-0.37280273,-0.4832886,9.852551,-0.015647888,0.059944153,0.050689697,77.64484684,12.87849628,5.21
152178990439,-0.47688904,-0.8321594,10.124136,-0.03958435,0.033798218,-0.060713194,77.64484684,12.87849628,5.21
152178990460,0.22217254,-0.98494875,8.839432,0.010621643,-0.03961029,-0.091012575,77.64484684,12.87849628,5.21
152178990481,-1.2806412,-0.3467804,10.615746,0.06547394,-0.04486542,-0.023820495,77.64484684,12.87849628,5.21
152178990503,-1.1114686,0.33050996,11.918155,-0.0061203004,-0.019697571,0.0388443,77.64489061,12.8784849,5.33
152178990524,-0.09762573,-0.15523529,9.843458,-3.7384033E-4,0.023292542,0.029438782,77.64489061,12.8784849,5.33
152178990545,-0.5863617,-0.2487915,9.806371,0.009030151,0.0015533448,-0.037623595,77.64489061,12.8784849,5.33
152178990566,-0.22564392,-0.09948273,9.584436,-0.009049987,-0.05231781,-0.059246827,77.64489061,12.8784849,5.33
152178990588,-1.2274002,0.39427796,10.18396,0.034199525,-0.04046631,0.029559325,77.64489061,12.8784849,5.33
152178990609,-0.41898498,-0.4355545,9.904478,-0.025048828,-0.021652222,0.019056702,77.64495257,12.87847829,5.33
152178990630,-0.23976287,-0.45744628,9.294424,0.02173767,0.008758545,0.04910431,77.64495257,12.87847829,5.33
152178990651,-0.45356292,-0.051026918,9.936539,-0.02419281,-0.005532837,0.002078247,77.64495257,12.87847829,5.33
152178990673,-0.9679001,0.06682129,9.927208,-0.02676239,-0.02421875,-0.014533997,77.64495257,12.87847829,5.33
152178990694,-0.30891266,-0.095774844,9.677638,0.0023086548,-0.023974609,0.0116088865,77.64499244,12.87845517,5.11
152178990715,-0.3458832,-0.25525513,9.402224,0.011842346,-0.04999695,0.012217713,77.64499244,12.87845517,5.11
152178990736,-0.73938596,-0.19004822,9.943599,-0.006237793,-0.05378418,0.049594115,77.64499244,12.87845517,5.11
152178990758,-0.6944,-0.050787352,9.596161,-0.016749572,0.00912323,0.11531677,77.64499244,12.87845517,5.11
152178990779,-0.67010957,-0.14649811,10.280386,-0.035435487,0.07228241,0.11409607,77.64499244,12.87845517,5.11
152178990800,-0.56099856,-0.11168365,9.930318,-0.01210022,0.07777862,0.017222594,77.64504994,12.87844862,5.31
152178990822,-0.4455429,-0.22785798,10.400149,-0.0020828247,0.065805055,-0.028096009,77.64504994,12.87844862,5.31
152178990843,-0.23653106,-0.708934,9.356161,0.014163208,0.013517762,-0.075619504,77.64504994,12.87844862,5.31
152178990864,-0.28989258,-0.9663986,9.380327,0.0012115479,-0.026907349,-0.063401796,77.64504994,12.87844862,5.31
152178990885,-1.3121064,-0.30466613,11.000389,0.017948914,-0.010540771,-0.0029296875,77.64504994,12.87844862,5.31
152178990907,0.540654,-0.8452042,9.148463,0.019291688,-0.022875976,-0.06620941,77.64509299,12.87843391,5.18
152178990928,-1.4635712,-0.17353821,10.939733,-0.006364441,-0.05561676,-0.035913087,77.64509299,12.87843391,5.18
152178990949,-0.29719085,-0.99200594,8.996282,0.005244446,-0.046089172,0.027238464,77.64509299,12.87843391,5.18
152178990970,-1.4024338,-0.33110657,9.708386,-0.014421081,0.043696593,0.08135529,77.64509299,12.87843391,5.18
152178990991,-0.20841828,-0.43196258,10.63692,-0.0224823,0.06213989,-0.012950134,77.64513953,12.87841756,5.2
152178991013,-0.17946473,-0.52923125,8.861087,0.019293213,0.010345459,-0.09846649,77.64513953,12.87841756,5.2
152178991034,-1.0548782,-0.13824463,11.780568,0.009887695,-0.04058838,-0.0784256,77.64513953,12.87841756,5.2
152178991055,0.16976929,-0.80811465,8.49295,0.03456421,-0.063682556,-0.044218443,77.64513953,12.87841756,5.2
152178991077,-1.5533005,0.013337707,11.556959,-0.008563233,-0.06441345,3.0517579E-6,77.64513953,12.87841756,5.2
152178991098,-0.32231444,-0.80895233,9.914764,-0.007951355,-0.025924683,0.05239868,77.64518665,12.8784077,5.15
152178991119,-0.1355545,-0.43256074,7.8209243,0.04152832,-0.026786804,0.017231751,77.64518665,12.8784077,5.15
152178991140,-1.5093918,-0.2335968,11.955366,-0.03909912,0.010096741,0.061685182,77.64518665,12.8784077,5.15
152178991162,-0.17647247,-0.45804596,10.032132,-9.857178E-4,0.022315979,0.026995849,77.64518665,12.8784077,5.15
152178991183,-0.108155824,-1.3902848,8.765732,-0.029444885,0.008880615,-0.011236573,77.64518665,12.8784077,5.15
152178991204,-0.82301027,-0.85298,8.557437,-0.0036758422,-0.051950075,-0.038845826,77.64522462,12.87839381,5.22
152178991225,-0.628595,-0.25489807,10.632254,0.05667572,-0.022998046,0.06803894,77.64522462,12.87839381,5.22
152178991247,-1.1903107,-1.2049668,9.805652,0.023937989,0.040516663,0.07866669,77.64522462,12.87839381,5.22
152178991268,0.080279544,-0.31483307,9.836283,-0.10433197,0.028666686,0.010627747,77.64522462,12.87839381,5.22
152178991289,-0.87086946,-0.5575851,8.993169,0.018928528,0.006921387,-0.03322754,77.64527134,12.87838226,5.22
152178991310,-0.77013093,-0.59384,11.366612,0.0063476563,-0.019212341,-0.02589569,77.64527134,12.87838226,5.22
152178991332,-0.46002045,-0.47670746,8.696577,0.03640137,0.045037843,0.049345396,77.64527134,12.87838226,5.22
152178991353,-0.19800568,-0.3294281,10.721025,-0.05595398,0.01010437,-0.08233948,77.64527134,12.87838226,5.22
152178991374,-0.698468,0.1487732,9.995283,0.11373444,-0.0038238526,-0.06633453,77.64527134,12.87838226,5.22
152178991395,-0.6989441,-1.540918,10.211116,-0.0304245,-0.008340454,-0.032614134,77.64531314,12.87836075,4.99
152178991417,-0.3229126,-1.091185,9.528682,-0.08722992,-0.07577209,-0.085884094,77.64531314,12.87836075,4.99
152178991438,-1.0048645,-0.75738525,9.760668,0.03212128,-0.041567992,-0.0047668456,77.64531314,12.87836075,4.99
152178991459,-0.3358322,-0.83814394,9.841306,-0.011734009,0.026591491,0.08880768,77.64531314,12.87836075,4.99
152178991480,-0.77707064,-0.7701889,10.312332,-0.08002472,0.07264862,0.002444458,77.64531314,12.87836075,4.99
152178991502,-0.0059829713,-0.87966,7.985672,0.09430847,0.032579042,-0.07977448,77.64535786,12.87835018,4.99
152178991523,-0.139859,-0.7576294,13.797841,0.08795319,-0.03387909,-0.25117952,77.64535786,12.87835018,4.99
152178991544,-0.7378281,-0.9707077,9.08063,0.04507904,-0.09825287,-0.101034544,77.64535786,12.87835018,4.99
152178991565,0.15158233,-0.3425888,9.987984,0.021125793,-0.26196593,-0.18716279,77.64535786,12.87835018,4.99
152178991587,-1.7672195,-0.52360994,10.023997,0.039331056,-0.26770782,0.0776947,77.64535786,12.87835018,4.99
152178991608,-1.2849472,-0.6566513,8.587466,-0.09248199,-0.026057433,0.44615632,77.64539867,12.87833606,3.96
152178991629,0.15756378,-0.88671875,12.421967,-0.19083099,0.22866058,0.44518128,77.64539867,12.87833606,3.96
152178991650,0.038882446,1.1573517,8.5463085,0.53669584,0.1367859,-0.098710634,77.64539867,12.87833606,3.96
152178991672,-1.9859253,-1.1111664,13.575422,-0.40463257,0.09513092,0.1213089,77.64539867,12.87833606,3.96
152178991693,0.6340973,1.3673172,9.28964,0.04311981,0.12530212,-0.030667115,77.64542977,12.8783176,3.96
152178991714,-0.014118957,-0.067416385,11.592253,0.13267212,0.098667905,-0.25863647,77.64542977,12.8783176,3.96
152178991735,-0.3208786,0.5147583,8.410158,-0.016374206,-0.062582396,-0.17898102,77.64542977,12.8783176,3.96
152178991757,-0.53802794,-0.739563,10.582842,0.074639894,-0.02935028,-0.16272888,77.64542977,12.8783176,3.96
152178991778,-0.5316879,-0.2819336,10.390219,-0.17030334,-0.11828919,-0.09736328,77.64542977,12.8783176,3.96
152178991799,-0.8123657,0.15930176,9.117116,0.10285644,-0.10228882,-0.0850235,77.64546615,12.87831042,4.0
152178991820,-1.0557159,-0.5904892,10.081545,-0.03567352,-0.069300845,0.046174623,77.64546615,12.87831042,4.0
152178991842,-0.6926025,0.013456726,9.220011,-0.014424133,0.044554137,0.13877563,77.64546615,12.87831042,4.0
152178991863,-0.29802856,0.44775695,11.576582,0.042993166,0.102090456,0.03237305,77.64546615,12.87831042,4.0
152178991884,-0.1396225,0.1619339,9.120585,0.07597961,0.031115722,-0.12754364,77.64546615,12.87831042,4.0
152178991905,-0.26464692,-0.29401702,13.124736,-0.2245514,-0.0639267,-0.10970154,77.64549566,12.87829797,4.5
152178991927,-0.5152954,-0.5435898,9.704198,0.18349151,-0.09715271,-0.12216797,77.64549566,12.87829797,4.5
152178991948,-0.72897494,-0.24018097,11.390181,0.03859558,-0.105220035,0.013929749,77.64549566,12.87829797,4.5
152178991969,-0.9938599,-0.2802597,8.779968,-0.11324768,-0.05427246,0.07536926,77.64549566,12.87829797,4.5
152178991990,-0.27529603,-0.5873779,9.742482,-0.034330748,-0.008953857,0.07683258,77.64553603,12.87828628,4.53
152178992012,-0.62225646,-1.056372,9.186869,0.08294525,0.036610413,0.0995575,77.64553603,12.87828628,4.53
152178992033,-0.55645144,-0.8923416,10.317477,-0.15063325,0.045281984,0.0447052,77.64553603,12.87828628,4.53
152178992054,-0.16905212,0.038105775,9.284735,0.08539124,0.09219513,0.030297851,77.64553603,12.87828628,4.53
152178992075,-0.1584076,-1.6756347,9.905434,9.719849E-4,0.045036316,-0.0941864,77.64553603,12.87828628,4.53
152178992097,-0.6070587,-0.5354538,8.966372,7.2631834E-4,-0.003941345,-0.09333344,77.64559179,12.87826492,4.39
152178992118,-0.4224518,-0.5396393,10.714806,0.10065918,-0.02434082,-0.06804504,77.64559179,12.87826492,4.39
152178992139,-0.77563477,-0.8371887,9.445531,0.0023147583,-0.041929625,-0.031396486,77.64559179,12.87826492,4.39
152178992160,-0.48143616,-0.51583403,9.675604,0.03126831,-0.071250916,-0.07708283,77.64559179,12.87826492,4.39
152178992182,-0.45858613,-0.7768906,9.5158825,-0.04728241,-0.06856537,-0.01844635,77.64559179,12.87826492,4.39
152178992203,-0.70696104,-0.7529602,9.887965,-0.03580322,-0.04119873,0.056674194,77.64563758,12.87825214,4.68
152178992224,-0.27792817,-0.46426696,9.1714325,0.06669464,-0.036927797,0.036886595,77.64563758,12.87825214,4.68
152178992245,-0.28570405,-0.5260025,9.148344,-0.014909362,-0.040223695,0.029684449,77.64563758,12.87825214,4.68
152178992267,-0.5149368,-0.4043274,9.106471,0.035054017,-0.0060241697,0.07744446,77.64563758,12.87825214,4.68
152178992288,-0.32255402,0.1413559,11.85068,-0.030177306,-0.009689331,0.054234315,77.6456747,12.87823995,4.03
152178992309,-0.6151962,0.80297244,10.55353,-0.008436585,-0.080906674,-0.011112976,77.6456747,12.87823995,4.03
152178992330,-1.3975296,0.35575256,11.339574,0.042263795,-0.09727478,0.08331299,77.6456747,12.87823995,4.03
152178992352,-1.8506104,0.2145752,10.915564,-0.0019607544,-0.005531311,0.24519043,77.6456747,12.87823995,4.03
152178992373,-0.98763883,0.49071044,11.875803,0.017463684,0.08401032,0.22564086,77.6456747,12.87823995,4.03
152178992394,-0.69703066,0.29186553,10.859093,-0.019306947,0.1240799,0.10982361,77.64571343,12.87822989,4.25
152178992415,0.34923095,-0.6259033,9.512532,-0.027005006,0.13165589,0.059243776,77.64571343,12.87822989,4.25
152178992437,0.74787444,-1.0556533,7.177498,-0.030549621,0.101112366,-0.036405943,77.64571343,12.87822989,4.25
152178992458,-1.0084534,-0.007116699,10.137659,-0.05669098,0.06434174,-0.12607574,77.64571343,12.87822989,4.25
152178992479,-0.5602814,-0.0509079,10.387945,0.17762756,-8.9263916E-4,-0.12472992,77.64571343,12.87822989,4.25
152178992500,-0.6354157,-0.1220932,9.654905,0.03493347,0.0021636963,-0.12253418,77.64575151,12.87822211,4.17
152178992522,-0.33045045,-0.074113466,10.657972,-0.04044037,-0.042539977,-0.14513092,77.64575151,12.87822211,4.17
152178992543,0.43980256,-1.4158936,8.897575,0.049102783,-0.07552948,-0.14342499,77.64575151,12.87822211,4.17
152178992564,-0.7156906,-1.3365707,9.039709,0.027967835,-0.12207794,-0.10933838,77.64575151,12.87822211,4.17
152178992586,-0.36083984,-1.0332794,9.216182,-0.030667115,-0.085672,-0.004269409,77.64578769,12.87821426,4.04
152178992607,-0.367659,-1.2189652,9.948148,-0.03299408,-0.05305176,0.01856842,77.64578769,12.87821426,4.04
152178992628,-0.3725647,-0.66526335,9.963699,0.026010131,-0.020558167,0.011000061,77.64578769,12.87821426,4.04
152178992649,-0.24514465,-0.32129517,10.572075,0.05166626,-0.010171508,-0.0057357787,77.64578769,12.87821426,4.04
152178992671,-0.45942536,-0.46869355,10.6182575,0.0062210085,0.009976196,-0.010014343,77.64578769,12.87821426,4.04
152178992692,-0.0049072267,-0.40839234,9.922064,0.019413758,-0.01749878,-0.024552917,77.64582969,12.87820673,4.69
152178992713,-0.51624906,-0.5627335,8.924495,-0.02871399,-0.015184021,-0.035058595,77.64582969,12.87820673,4.69
152178992734,0.145961,-0.62865144,10.044698,-0.06841278,-0.045848083,-0.017224122,77.64582969,12.87820673,4.69
152178992756,-0.47904357,-0.41820526,9.913569,0.06840668,-0.0038238526,0.012705994,77.64582969,12.87820673,4.69
152178992777,-0.087939456,-1.1991059,10.501126,0.014654541,0.01999054,0.04714813,77.64582969,12.87820673,4.69
152178992798,-0.28965148,-1.2479156,6.655263,-0.332547,-0.008221435,-0.010136413,77.64587396,12.87819831,4.68
152178992819,-0.63469696,-0.45924073,11.386827,0.26559752,0.048828125,-0.07378693,77.64587396,12.87819831,4.68
152178992841,1.000438,-1.4203186,5.27688,0.16553497,-0.0074905395,-0.02382202,77.64587396,12.87819831,4.68
152178992862,-0.18460694,0.5740997,8.918991,-0.049850464,-0.10302277,-0.14061889,77.64587396,12.87819831,4.68
152178992883,-0.47210693,-1.590091,10.712891,0.013067627,-0.089703366,-0.08075409,77.64587396,12.87819831,4.68
152178992904,-0.19645385,-0.14817353,9.724536,-0.027246093,-0.20357056,0.03151245,77.6459187,12.87818779,3.76
152178992926,-1.4870224,0.2522644,12.179092,0.033956908,0.003994751,0.28648072,77.6459187,12.87818779,3.76
152178992947,0.20422669,-0.51056826,9.713649,0.043606568,0.09915924,0.29772338,77.6459187,12.87818779,3.76
152178992968,0.24908905,-0.3283554,10.460329,-0.027003478,0.0054595945,-0.007699585,77.6459187,12.87818779,3.76
152178992989,-0.7716873,-0.45673066,9.703,-0.097984314,0.041615296,0.12045135,77.64595891,12.8781786,3.73
152178993011,0.12968902,0.31926116,10.352293,0.034446716,0.060310364,0.1033432,77.64595891,12.8781786,3.73
152178993032,-0.6069428,0.46582183,11.758911,0.07476044,0.11137543,0.038236998,77.64595891,12.8781786,3.73
152178993053,-0.3460037,0.41102448,10.469423,-0.043373108,0.080589294,-0.017835999,77.64595891,12.8781786,3.73
152178993074,-0.030151367,-0.49094543,9.537656,-0.12973937,0.05383148,-0.07439728,77.64595891,12.8781786,3.73
152178993096,0.8116455,-0.8215164,7.4797072,0.044584654,-0.04510956,-0.18337555,77.645993,12.87817391,3.07
152178993117,-0.6263245,-0.77940065,8.704953,0.090760805,-0.093367,-0.1783615,77.645993,12.87817391,3.07
152178993138,-0.8230133,-1.1336594,9.232452,-0.021878053,-0.12647553,0.019795228,77.645993,12.87817391,3.07
152178993159,-1.2887757,-0.7249649,9.798355,0.004022217,0.03355713,0.15673676,77.645993,12.87817391,3.07
152178993181,0.46839294,-0.068014525,10.149261,-0.0072143553,0.09707947,0.07647705,77.645993,12.87817391,3.07
152178993202,0.1877182,-0.6824951,9.792851,0.02711029,0.011439514,-0.1987671,77.64602303,12.87817133,2.95
152178993223,0.035891723,-0.84771574,9.864278,-0.053755186,-0.09068298,-0.14329834,77.64602303,12.87817133,2.95
152178993244,-1.368097,-0.89258116,9.27433,-0.004893494,-0.06038208,-8.5601804E-4,77.64602303,12.87817133,2.95
152178993266,-0.10325317,-0.76947176,9.68015,-0.010762024,0.1074646,0.23675843,77.64602303,12.87817133,2.95
152178993287,0.6147171,-0.8376678,9.899332,-0.0037948608,0.04503479,-0.135849,77.64602303,12.87817133,2.95
152178993308,-0.08016052,-0.8679352,9.693547,0.0433609,-0.09507904,-0.23530121,77.64605477,12.87816701,3.54
152178993329,-1.0546386,-0.71324,10.372749,0.048858643,-0.11853333,-0.100421146,77.64605477,12.87816701,3.54
152178993351,-0.17982177,-0.73071134,7.9866304,-0.078559875,-0.015423584,0.08660583,77.64605477,12.87816701,3.54
152178993372,0.073934935,-0.66311187,9.688286,0.114953615,0.016212463,-0.062423706,77.64605477,12.87816701,3.54
152178993393,-0.3854843,-0.433638,9.139371,0.082214355,-0.047193907,-0.10286407,77.64608851,12.87816058,3.89
152178993414,-1.0267608,0.76648253,11.262642,0.0072006225,-0.07895203,-0.049113464,77.64608851,12.87816058,3.89
152178993436,-0.36119843,0.58199465,9.51301,0.015385437,-0.021165466,0.09039307,77.64608851,12.87816058,3.89
152178993457,-0.41396028,-0.06466675,10.117197,0.04617157,0.036978148,0.11421509,77.64608851,12.87816058,3.89
152178993479,0.3664566,1.0206009,10.531515,-0.019552613,0.028909301,0.11190186,77.64608851,12.87816058,3.89
152178993499,-0.019619752,0.6695694,11.399753,-0.02859497,4.486084E-4,-0.013067627,77.6461225,12.87815447,3.47
152178993521,0.23413543,-0.13333893,8.272092,-0.013446045,-0.016284179,0.057778932,77.6461225,12.87815447,3.47
152178993542,-1.109195,0.20931244,8.864077,-0.018936157,0.040394593,0.114953615,77.6461225,12.87815447,3.47
152178993563,0.06604157,0.6497116,10.908145,-0.042272948,0.07729034,0.05533447,77.6461225,12.87815447,3.47
152178993584,-0.19944458,-0.0552124,8.691435,-0.0011108399,0.10086975,-0.012698364,77.6461225,12.87815447,3.47
152178993606,0.26201478,0.10235443,10.911855,-0.010391235,0.08584137,-0.09785614,77.64615337,12.87815128,3.7
152178993627,-0.02823639,0.13788757,9.356641,0.05509033,-0.015182495,-0.27830046,77.64615337,12.87815128,3.7
152178993648,-0.55250394,0.27236176,11.299372,0.027970886,-0.11022644,-0.23456725,77.64615337,12.87815128,3.7
152178993669,-0.11880493,-0.0513855,9.860448,-0.015641784,-0.14638977,-0.120947264,77.64615337,12.87815128,3.7
152178993691,-0.98141783,0.12592316,10.556519,0.01782837,-0.093367,0.03127136,77.64618552,12.87814669,3.71
152178993712,-0.06855621,-0.0626297,11.754248,0.0054840087,-0.03387604,0.085020445,77.64618552,12.87814669,3.71
152178993734,-0.21571656,0.093739316,9.707069,0.018193055,-0.09251404,-0.010255432,77.64618552,12.87814669,3.71
152178993754,-0.88797605,-0.63200533,8.857498,0.03248749,-0.13942413,0.06242218,77.64618552,12.87814669,3.71
152178993776,-1.1499923,-0.03918152,11.057577,0.012696838,-0.04499359,0.28391877,77.64618552,12.87814669,3.71
152178993797,-0.27733,-1.0465591,9.796201,0.009028626,0.060551453,0.3188553,77.6462171,12.87813973,3.85
152178993819,-0.5666229,-0.7754547,9.710297,-0.06572418,0.1300705,0.21611023,77.6462171,12.87813973,3.85
152178993840,0.15373993,-0.8790619,9.336182,-0.050093077,0.15865174,0.16870575,77.6462171,12.87813973,3.85
152178993861,0.36825562,-0.556749,10.086209,-0.03592224,0.1493698,-0.054238893,77.6462171,12.87813973,3.85
152178993882,0.33140412,-0.70701754,10.162541,-0.0062362673,0.033312988,-0.19767304,77.6462171,12.87813973,3.85
152178993904,-0.033021547,-0.64851534,9.640788,0.087712094,-0.10619354,-0.2754944,77.64625,12.87813572,3.81
152178993925,-1.0298722,-0.94366914,10.043261,0.031999208,-0.1237854,-0.06682434,77.64625,12.87813572,3.81
152178993946,-0.805426,-0.9585037,9.881146,0.0014541626,-0.067588806,0.113975525,77.64625,12.87813572,3.81
152178993967,-0.5327652,-1.0288528,9.576779,-0.0050186156,-0.0012542724,0.14830475,77.64625,12.87813572,3.81
152178993989,-0.44733888,-1.115596,9.911774,-0.053385925,0.018286133,0.11006622,77.64627981,12.87812796,3.08
152178994010,-0.5292953,-1.2355942,9.747388,-0.013571167,0.08632813,0.12594756,77.64627981,12.87812796,3.08
152178994031,0.31800383,-1.0318451,10.3691635,0.05826416,0.07203674,0.0031784058,77.64627981,12.87812796,3.08
152178994052,0.23820496,-1.1598587,9.208405,0.07035828,-2.7770997E-4,-0.14806518,77.64627981,12.87812796,3.08
152178994074,-0.64343107,-1.4056015,10.141965,0.06559601,-0.03363037,-0.20145874,77.64627981,12.87812796,3.08
152178994095,0.2173874,-2.2038498,9.872412,-0.097608946,-0.06588288,-0.0698761,77.6463032,12.87811875,2.62
152178994116,-0.17491607,-2.124289,9.552973,-0.0041625975,-0.0980072,-0.20512542,77.6463032,12.87811875,2.62
152178994137,-0.54544675,-2.7440276,9.658613,-0.018086243,-0.058668517,-0.016615296,77.6463032,12.87811875,2.62
152178994159,-0.05228424,-2.174179,9.954724,-0.043006897,-0.019328307,0.07622681,77.6463032,12.87811875,2.62
152178994180,0.106480405,-2.1725037,9.37937,0.05179291,-0.02434082,0.053623963,77.6463032,12.87811875,2.62
152178994201,0.17132416,-1.9855057,9.754924,0.004388428,-0.030203247,0.029190063,77.64631755,12.87811171,1.04
152178994222,-0.015435791,-0.06334839,10.06587,0.014404297,-0.0023529052,0.008433533,77.64631755,12.87811171,1.04
152178994244,0.024526978,-0.34319,9.717239,0.02772522,-0.05793915,0.023706054,77.64631755,12.87811171,1.04
152178994265,0.13627014,-0.08739624,9.915006,-0.0012298584,-0.088113405,0.014788819,77.64631755,12.87811171,1.04
152178994286,0.57690585,-0.54215395,9.375662,-0.022120666,-0.031056214,0.011242676,77.64631592,12.87810866,0.0
152178994307,0.4290329,-0.075193785,10.452434,0.012329102,-0.022875976,-3.6315917E-4,77.64631592,12.87810866,0.0
152178994329,0.2612961,-0.1496109,9.526291,-0.0036743165,-0.030574035,-0.0024368286,77.64631592,12.87810866,0.0
152178994350,0.5142166,-0.47611085,9.28569,-0.0020843507,-0.015663147,-0.0043930053,77.64631592,12.87810866,0.0
152178994371,0.538504,-0.051745605,10.054861,-0.0018402099,-0.0063842773,-0.0010955811,77.64631592,12.87810866,0.0
152178994392,0.24526367,-0.27427825,9.356999,-1.3122559E-4,0.011195374,-0.0029266358,77.64631302,12.87810942,0.0
152178994414,0.39804688,-0.5592621,9.340607,-3.7384033E-4,0.025495911,-0.005126953,77.64631302,12.87810942,0.0
152178994435,0.51948243,-0.511644,9.813906,0.0024368286,0.026708985,-0.0059844973,77.64631302,12.87810942,0.0
152178994456,0.4509262,-0.21206208,10.23038,-7.4005127E-4,0.029396057,-0.007696533,77.64631302,12.87810942,0.0
152178994477,0.09750519,0.010229493,10.071973,0.001701355,0.03037567,-0.0113571165,77.64631302,12.87810942,0.0
152178994499,-0.23019104,-0.30729827,9.45666,0.003656006,0.019874573,-0.008303833,77.64631195,12.87811098,0.0
152178994520,-0.1281372,-0.5215759,9.391454,0.0037780763,0.013887024,-0.0061035156,77.64631195,12.87811098,0.0
152178994541,-0.0075408937,-0.485202,8.979413,0.0012161254,6.9274905E-4,-0.0036621094,77.64631195,12.87811098,0.0
152178994562,0.21284027,-0.5943146,9.317517,0.0010925293,-0.011024475,-0.005859375,77.64631195,12.87811098,0.0
152178994584,0.28726044,-0.45589143,9.290598,0.013919068,-0.024467468,-0.0061065676,77.64631195,12.87811098,0.0
