timestamp,accx,accy,accz,gyrx,gyry,gyrz,longitude,latitude,speed
152179138108,0.3633499,-0.8544159,9.778015,-0.008709717,0.004293823,0.0014099121,77.64643491,12.87808234,0.0
152179138129,0.29719085,-0.9362518,9.740331,0.0022018433,-0.0032440186,-0.0011795044,77.64643464,12.87808266,0.0
152179138151,0.42209166,-1.0301697,10.056181,0.0011016845,-0.0041015623,-0.0011795044,77.64643464,12.87808266,0.0
152179138173,0.3933792,-0.87714845,9.89299,-0.0020706176,0.010917664,3.8146973E-5,77.64643464,12.87808266,0.0
152179138193,0.30257112,-0.8759521,9.777776,-8.4991456E-4,0.030700684,-0.0014266968,77.64643464,12.87808266,0.0
152179138214,0.2845047,-0.86937106,9.854704,0.00256958,0.047193907,0.001260376,77.64643494,12.87808112,0.0
152179138235,0.032302856,-0.86937106,9.793928,0.0086807255,0.07895813,0.0043167113,77.64643494,12.87808112,0.0
152179138256,-0.11318207,-0.87858427,9.78974,0.0042816163,0.044137575,0.0034637451,77.64643494,12.87808112,0.0
152179138278,-0.14919433,-0.7364502,9.79632,1.0681152E-5,0.021417236,0.0022399903,77.64643494,12.87808112,0.0
152179138299,-0.24550629,-0.7299881,9.478556,0.0018402099,0.004199219,7.736206E-4,77.64643494,12.87808112,0.0
152179138320,-0.13998261,-1.039621,9.883542,0.001473999,0.016410828,0.0018737793,77.6464349,12.87808048,0.0
152179138341,-0.17814636,-0.87368166,9.980687,-7.232666E-4,0.025204469,0.004194641,77.6464349,12.87808048,0.0
152179138363,-0.23773041,-0.81362,9.837476,-4.8217774E-4,0.017019654,-0.0038650513,77.6464349,12.87808048,0.0
152179138384,-0.096913144,-0.79220426,9.855426,0.005747986,0.0034729005,-0.03746643,77.6464349,12.87808048,0.0
152179138405,-0.26237488,-0.5639267,9.68972,0.010269165,-0.008987427,-0.07411651,77.6464349,12.87808048,0.0
152179138426,-0.3073593,-0.8570511,9.561945,0.009414673,-0.008378601,-0.07863464,77.64643529,12.87808031,0.0
152179138448,-0.21894531,-0.7436279,10.111455,0.0011047364,-0.013633728,-0.058721922,77.64643529,12.87808031,0.0
152179138469,-0.54628295,-0.68512267,9.715683,-0.0021911622,0.008598328,-0.02280426,77.64643529,12.87808031,0.0
152179138490,-0.13998261,-0.83778685,9.681345,-0.00206604,0.010301208,0.014700318,77.64643529,12.87808031,0.0
152179138512,-0.29156494,-1.1293533,9.858175,-0.0019454956,0.020196533,-0.0041091917,77.64643529,12.87808031,0.0
152179138533,-0.35772857,-0.67806244,10.014069,-6.088257E-4,0.0050582886,-0.0010620117,77.64643573,12.87808033,0.0
152179138554,-0.32877654,-0.65987855,9.734587,0.001348877,-0.0058120727,-6.942749E-4,77.64643573,12.87808033,0.0
152179138575,-0.29527587,-0.7783249,9.926732,7.385254E-4,-0.0070358277,-0.0011856079,77.64643573,12.87808033,0.0
152179138597,-0.3550949,-0.73860323,9.5876665,7.385254E-4,-0.0031219483,-0.0011795044,77.64643573,12.87808033,0.0
152179138618,-0.31082916,-0.9973892,9.691754,3.7078856E-4,-0.0043441774,-4.470825E-4,77.64643593,12.87808024,0.0
152179138639,-0.24741821,-0.81087035,10.033806,8.666992E-4,-0.0054458617,-9.384155E-4,77.64643593,12.87808024,0.0
152179138660,-0.2796051,-0.7840683,9.984636,6.1798096E-4,-0.003605652,-0.0010620117,77.64643593,12.87808024,0.0
152179138682,-0.3438507,-0.7733017,9.877199,1.296997E-4,0.0023757934,-5.7373045E-4,77.64643593,12.87808024,0.0
152179138703,-0.29683226,-0.7971085,9.899332,6.149292E-4,-0.0058135986,-8.163452E-4,77.64643593,12.87808024,0.0
152179138724,-0.24478607,-0.7569092,9.857458,0.0011077881,-0.012287903,-5.7067873E-4,77.64643565,12.87808024,0.0
152179138745,-0.22588348,-0.76444703,9.912252,0.0013549805,-0.007286072,-0.0014266968,77.64643565,12.87808024,0.0
152179138767,-0.22037964,-0.84305114,9.918116,0.0012313842,-0.010096741,-8.1787107E-4,77.64643565,12.87808024,0.0
152179138788,-0.18951416,-0.8221146,9.865829,9.841919E-4,-0.008624268,-0.00105896,77.64643565,12.87808024,0.0
152179138809,-0.20231323,-0.83575135,9.935824,0.0012268067,-0.0072814943,-0.0015441894,77.64643565,12.87808024,0.0
152179138830,-0.18041992,-0.8202011,9.9135685,0.0013504028,-0.008747864,-0.0010559082,77.64643507,12.87808009,0.0
152179138852,-0.15529633,-0.8473587,9.934267,7.4310304E-4,-0.0076477053,-9.414673E-4,77.64643507,12.87808009,0.0
152179138873,-0.13112946,-0.7762909,10.045054,9.857178E-4,-0.0018951416,-8.1787107E-4,77.64643507,12.87808009,0.0
152179138894,-0.1757553,-0.760376,9.828024,3.7231445E-4,-6.7749026E-4,-0.0010559082,77.64643507,12.87808009,0.0
152179138916,-0.19309998,-0.77880096,9.820726,3.7231445E-4,0.0013961792,-5.7373045E-4,77.64643471,12.87807984,0.0
152179138937,-0.21236725,-0.8001007,9.753133,-2.3803712E-4,0.003964233,-9.414673E-4,77.64643471,12.87807984,0.0
152179138958,-0.21379852,-0.76277316,9.711733,1.3122559E-4,0.006402588,-8.117676E-4,77.64643471,12.87807984,0.0
152179138979,-0.22612305,-0.75176543,9.582521,-1.1138916E-4,0.00713501,-4.5013428E-4,77.64643471,12.87807984,0.0
152179139000,-0.2852249,-0.81182253,9.602023,-4.7912597E-4,0.0018814087,-4.5013428E-4,77.64643471,12.87807984,0.0
152179139022,-0.25208586,-0.76360625,9.728961,2.532959E-4,6.637573E-4,-9.384155E-4,77.64643427,12.87807947,0.0
152179139043,-0.24993134,-0.9094528,9.637077,6.210327E-4,-0.003855896,-0.0015472412,77.64643427,12.87807947,0.0
152179139064,-0.21092835,-0.74339294,9.80984,7.461548E-4,-0.0120483395,-9.414673E-4,77.64643427,12.87807947,0.0
152179139085,-0.18915406,-0.8227127,9.790936,0.0013458251,-0.018029785,-0.0011825562,77.64643427,12.87807947,0.0
152179139107,-0.20075989,-0.77317965,9.726807,0.001473999,-0.017544556,-0.0017944336,77.64643427,12.87807947,0.0
152179139128,-0.08925476,-0.7807175,9.836398,6.164551E-4,-0.014367675,-9.384155E-4,77.64643385,12.87807896,0.0
152179139149,-0.064367674,-0.7389618,9.732794,7.4005127E-4,-0.009118652,-0.0013061523,77.64643385,12.87807896,0.0
152179139170,-0.059584044,-0.825943,9.686969,4.577637E-6,-0.011192322,-8.1787107E-4,77.64643385,12.87807896,0.0
152179139192,-0.063531496,-0.82905424,9.699532,2.4871825E-4,0.0021255494,-8.117676E-4,77.64643385,12.87807896,0.0
152179139213,-0.06413116,-0.7712677,9.788185,-4.8675537E-4,0.011157227,-9.384155E-4,77.64643325,12.87807862,0.0
152179139234,-0.09523468,-0.7283142,9.802541,-2.3498535E-4,0.010186767,-8.1787107E-4,77.64643325,12.87807862,0.0
152179139256,-0.17922516,-0.65641177,9.754446,-1.20544435E-4,0.0050613405,-5.6610105E-4,77.64643325,12.87807862,0.0
152179139277,-0.16355285,-0.77904356,9.433807,7.415771E-4,-0.0038589477,-0.0016677857,77.64643325,12.87807862,0.0
152179139298,-0.085545346,-0.85944366,9.732793,8.621216E-4,-0.006666565,-6.942749E-4,77.64643325,12.87807862,0.0
152179139319,-0.04044037,-0.8420914,9.800867,-7.2631834E-4,9.048462E-4,-6.9122313E-4,77.64643248,12.87807789,0.0
152179139341,-0.17084809,-0.74937284,9.841906,-3.5858154E-4,0.007498169,-9.384155E-4,77.64643248,12.87807789,0.0
152179139362,-0.14847565,-0.7243668,9.837122,6.1035157E-6,0.011161804,-5.7373045E-4,77.64643248,12.87807789,0.0
152179139383,-0.16642609,-0.76779634,9.882466,-3.5858154E-4,0.00713501,-0.0013031006,77.64643248,12.87807789,0.0
152179139404,-0.19465637,-0.780719,9.778735,1.296997E-4,0.0021316528,-0.0014266968,77.64643248,12.87807789,0.0
152179139426,-0.20494537,-0.78143615,9.85674,1.3427735E-4,0.0013931275,-6.942749E-4,77.64643178,12.87807712,0.0
152179139447,-0.15840606,-0.8067978,9.924815,3.7231445E-4,0.0022521974,-5.7373045E-4,77.64643178,12.87807712,0.0
152179139468,-0.20303039,-0.77904356,9.758992,-6.04248E-4,0.0029846192,-8.1787107E-4,77.64643178,12.87807712,0.0
152179139489,-0.2251648,-0.8206787,9.797873,-1.1291504E-4,0.002001953,-5.7373045E-4,77.64643178,12.87807712,0.0
152179139511,-0.2595047,-0.92392886,9.67644,1.2664795E-4,0.003352356,-0.0013031006,77.64643124,12.87807657,0.0
152179139532,-0.1807785,-0.84089816,9.980568,3.7536622E-4,-8.041382E-4,-3.2653808E-4,77.64643124,12.87807657,0.0
152179139553,-0.23736878,-0.7859818,9.744637,4.928589E-4,-0.0054443358,-0.0015472412,77.64643124,12.87807657,0.0
152179139575,-0.18556213,-0.8827728,9.772632,-1.1749267E-4,-0.0036087036,-4.5318605E-4,77.64643124,12.87807657,0.0
152179139596,-0.18975219,-0.918306,9.795843,1.3427735E-4,-4.333496E-4,-0.00105896,77.64643124,12.87807657,0.0
152179139617,-0.23306426,-0.80201566,9.998514,1.3122559E-4,-0.005200195,-4.470825E-4,77.64643114,12.87807641,0.0
152179139638,-0.20865631,-0.84736025,9.807088,-1.1444092E-4,-0.006425476,-0.0016708374,77.64643114,12.87807641,0.0
152179139660,-0.14679718,-0.85262144,9.960466,6.149292E-4,-0.0011703491,-9.3536376E-4,77.64643114,12.87807641,0.0
152179139681,-0.17575225,-0.7815567,9.953888,-7.232666E-4,0.0015136718,4.119873E-5,77.64643114,12.87807641,0.0
152179139702,-0.23904267,-1.2355912,8.92067,-1.15966795E-4,7.8277587E-4,-0.0044799806,77.64643114,12.87807641,0.0
152179139723,-0.24059907,0.22594452,9.843938,0.037023924,0.008836364,-0.007286072,77.64643096,12.87807627,0.0
152179139744,-0.17670898,-1.3535583,9.608126,-0.008053589,-0.0045913695,-0.0047210692,77.64643096,12.87807627,0.0
152179139766,-0.10169373,-0.81708986,10.144116,-0.035665892,0.020080566,0.0021194457,77.64643096,12.87807627,0.0
152179139787,-0.20470734,-0.628775,9.268224,0.010762024,0.007369995,-0.01144104,77.64643096,12.87807627,0.0
152179139808,-0.5146988,-1.6389053,10.04099,-0.017466735,-0.03867798,-0.0044769286,77.64643096,12.87807627,0.0
152179139830,-0.07657166,-0.9279968,9.62332,0.0045303344,-0.06897583,-0.0026474,77.64643065,12.87807606,0.0
152179139851,0.1138977,-1.1653626,9.3882265,0.009902954,-0.052363586,0.0015090943,77.64643065,12.87807606,0.0
152179139901,0.17431793,-0.28169402,9.777178,-0.004875183,-0.02315979,0.0059066773,77.64643065,12.87807606,0.0
152179139922,-0.12155609,-0.8164917,9.153728,0.0042785644,-0.010215759,0.0090789795,77.64643065,12.87807606,0.0
152179139943,0.18400726,-0.37357634,9.830897,0.010150147,0.00456543,0.009573365,77.64643044,12.87807594,0.0
152179139965,-0.008016968,-0.21051025,9.361545,0.023831178,0.022761535,0.038639832,77.64643044,12.87807594,0.0
152179139986,-0.4321472,0.66789705,10.178217,0.01149292,0.04951935,0.08737793,77.64643044,12.87807594,0.0
152179140007,-0.4451874,-0.11814575,11.185115,0.009169007,0.055262756,0.111203,77.64643044,12.87807594,0.0
152179140028,-0.3683777,0.674115,8.992334,0.004161072,-0.047106933,0.008468628,77.64643044,12.87807594,0.0
152179140050,-0.027038574,0.019084167,8.613072,0.0023284913,-0.0703186,-0.001184082,77.64642801,12.87807544,0.3
152179140071,-0.43657225,0.11658935,9.312012,-0.029434204,0.009080505,0.14040375,77.64642801,12.87807544,0.3
152179140092,-0.8248062,0.73477477,10.138614,-0.016607666,0.093251035,0.35066223,77.64642801,12.87807544,0.3
152179140113,0.14751586,0.16360931,10.610121,0.018702697,0.14150849,0.26843873,77.64642801,12.87807544,0.3
152179140135,1.1471207,0.63343966,10.1172,0.0152771,0.029484559,-0.17221832,77.64642801,12.87807544,0.3
152179140156,0.42532045,0.23024902,8.898532,0.097984314,-0.0084991455,-0.43367156,77.64642017,12.87807038,1.33
152179140177,-0.293602,0.018008422,9.517916,0.0064819334,0.02337494,-0.1799179,77.64642017,12.87807038,1.33
152179140198,0.3093918,0.89054716,10.110617,0.06769104,-0.007156372,-0.24075928,77.64642017,12.87807038,1.33
152179140220,-0.6108917,0.12376861,9.584436,0.03092041,-0.022917176,-0.183461,77.64642017,12.87807038,1.33
152179140241,-0.092242435,-1.3423126,11.968167,-0.2504303,-0.024995422,-0.06690826,77.64642017,12.87807038,1.33
152179140262,-0.1257431,-1.0440506,8.12314,-0.15586548,0.07553711,-0.0041137696,77.6464072,12.87806407,1.6
152179140284,0.6334976,-1.087117,9.250758,0.015162659,0.09325562,-0.17576447,77.6464072,12.87806407,1.6
152179140305,0.3339157,-1.0950149,11.505994,-0.06949768,-0.032327272,-0.3117447,77.6464072,12.87806407,1.6
152179140326,-0.40941316,-1.0928605,8.028623,0.16114959,-0.0962204,-0.3654953,77.6464072,12.87806407,1.6
152179140347,-0.9566528,-1.3895721,12.151097,0.11986084,-0.042095948,-0.09024048,77.64638647,12.87806015,2.44
152179140369,-0.19681092,-0.8964111,9.081345,0.06940613,-0.009362793,0.022396851,77.64638647,12.87806015,2.44
152179140390,-0.55932313,-0.4999176,9.477717,0.3091034,0.09044342,4.5776367E-5,77.64638647,12.87806015,2.44
152179140411,0.70875394,-0.8863632,10.690041,-0.12972412,0.054893494,-0.08022461,77.64638647,12.87806015,2.44
152179140432,0.41790313,-0.70271146,8.585312,-0.10505219,-0.08241425,-0.45504913,77.64638647,12.87806015,2.44
152179140454,-0.7071991,-0.77485657,10.707028,0.030549621,-0.14814301,-0.27569884,77.64635939,12.87806025,2.76
152179140475,-1.2592239,-1.0378265,9.328404,-0.15770873,-0.086811826,0.09422302,77.64635939,12.87806025,2.76
152179140496,-0.5635101,-0.70450747,10.820089,-0.013063049,0.06307831,0.2906723,77.64635939,12.87806025,2.76
152179140517,1.4793594,-1.3673156,9.640785,-0.07463074,0.024235535,0.023492431,77.64635939,12.87806025,2.76
152179140539,-0.97651213,-0.990567,11.736061,-7.217407E-4,-0.060426332,-0.14094391,77.64633478,12.87806379,2.24
152179140560,-0.9098709,-1.7335389,10.817934,-0.12264252,0.0844574,0.2571991,77.64633478,12.87806379,2.24
152179140581,1.9812561,-0.37405547,9.585035,0.22969207,0.01775818,-0.20215607,77.64633478,12.87806379,2.24
152179140602,-0.682196,-0.98016053,10.879433,0.09505463,-0.0142471315,-0.033677675,77.64633478,12.87806379,2.24
152179140624,0.46456605,-2.112323,10.314127,-0.12569733,-0.07973023,-0.1253006,77.64633478,12.87806379,2.24
152179140645,-0.2769699,-0.865184,9.1767,0.021881104,-0.11515503,-0.05053406,77.64631637,12.87806698,1.51
152179140666,-1.3092315,-1.207956,10.338415,0.042150877,0.10644837,0.29421386,77.64631637,12.87806698,1.51
152179140687,0.24956818,-0.93768615,9.788183,-0.060696412,0.21395722,0.2507263,77.64631637,12.87806698,1.51
152179140709,0.49507293,-1.1066192,9.417297,0.0034286499,0.16765442,-0.05041504,77.64631637,12.87806698,1.51
152179140730,0.20805664,0.13968201,10.200705,0.13634948,0.0586792,-0.37258452,77.64631637,12.87806698,1.51
152179140751,-0.27171022,-0.037747193,10.349899,0.087358095,-0.00813446,-0.3659851,77.64630055,12.87806968,1.6
152179140772,-0.21451874,-0.1043869,9.425433,-0.011233521,-0.02987976,-0.3040451,77.64630055,12.87806968,1.6
152179140794,0.108992,-0.3841095,9.437157,0.023217773,-0.03537903,-0.2677597,77.64630055,12.87806968,1.6
152179140815,-0.68722075,0.22474822,11.370321,0.007829284,-0.08045807,-0.19592437,77.64630055,12.87806968,1.6
152179140836,-0.8589035,0.62315214,11.050639,0.14685516,-0.07813873,-0.094638065,77.64630055,12.87806968,1.6
152179140858,0.5089523,-0.81709135,8.968285,-0.0019393921,-0.027560424,-0.032453917,77.6462775,12.87807689,2.89
152179140879,0.67429507,-0.46378937,7.007365,-0.16405487,-0.13018188,-0.076315306,77.6462775,12.87807689,2.89
152179140900,-0.4626541,-0.79830474,9.183641,-0.011959839,-0.119673155,-0.08230285,77.6462775,12.87807689,2.89
152179140921,-0.6909256,-0.6302109,9.444697,0.005628967,-0.1413025,0.06526947,77.6462775,12.87807689,2.89
152179140943,-1.0116867,-0.3513275,10.054865,0.041423034,-0.03501587,0.25572968,77.646248,12.87808991,3.3
152179140964,-0.97220457,-0.72639924,9.925774,-0.013793945,0.17876892,0.39622957,77.646248,12.87808991,3.3
152179140985,0.68853456,-0.78215486,10.331594,-0.028697204,0.32073975,0.21871491,77.646248,12.87808991,3.3
152179141007,1.8703461,-0.518103,10.505913,0.1319458,0.13882446,-0.37405092,77.646248,12.87808991,3.3
152179141028,0.50942993,-1.4588455,10.035601,0.050341796,-0.1646347,-0.619249,77.646248,12.87808991,3.3
152179141049,-1.4346192,-0.9463013,9.9719515,-0.10492096,-0.35962218,-0.24613647,77.64621659,12.87810259,3.21
152179141070,-1.8068192,-0.41916046,10.082026,0.04826355,-0.23647308,0.26990357,77.64621659,12.87810259,3.21
152179141091,-0.7611572,-1.2883561,9.94324,0.06756897,0.04671173,0.51742554,77.64621659,12.87810259,3.21
152179141113,0.9616745,-0.73896486,9.412033,0.0017181396,0.14566346,0.31535187,77.64621659,12.87810259,3.21
152179141134,-0.2000412,-1.0323226,9.701327,0.029081726,0.15934601,0.015922546,77.64621659,12.87810259,3.21
152179141155,0.5787018,-0.9209396,9.533229,-0.0150177,0.08408661,-0.056396484,77.64618464,12.87811331,3.35
152179141176,-0.22863618,-0.9586258,9.198354,-0.030410767,0.064907834,-0.07704773,77.64618464,12.87811331,3.35
152179141198,0.0020324707,-0.90717924,10.071378,0.013200378,0.07712555,-0.047361754,77.64618464,12.87811331,3.35
152179141219,0.04462433,-0.6946945,10.66324,-0.004512024,0.02118225,-0.15157624,77.64618464,12.87811331,3.35
152179141241,-0.21212463,-0.3467819,12.604062,-0.13474274,-0.01058197,-0.17246552,77.6461494,12.87812236,3.68
152179141261,0.25471497,-0.6013748,9.353526,0.121199034,-0.12309265,-0.23795167,77.6461494,12.87812236,3.68
152179141283,-0.95760804,-0.786821,11.572512,-0.027474975,-0.13751526,-0.09842529,77.6461494,12.87812236,3.68
152179141304,-0.7684555,0.867099,9.8888035,0.043014526,-0.11148987,0.10717163,77.6461494,12.87812236,3.68
152179141325,-0.5889969,-0.6260208,9.437279,0.07050018,0.016899109,0.18132782,77.6461494,12.87812236,3.68
152179141346,0.48777467,-0.78921205,7.676398,-0.08721008,0.038401794,0.14015809,77.64611621,12.87813423,3.42
152179141368,-0.30580598,-0.3626953,7.735742,0.09798737,0.039746094,0.011523438,77.64611621,12.87813423,3.42
152179141389,-0.97041166,-0.10690002,11.159633,-0.079516605,0.13136597,0.11547699,77.64611621,12.87813423,3.42
152179141410,0.5906662,-0.2785843,11.126012,-0.064855956,0.032044984,-0.111134335,77.64611621,12.87813423,3.42
152179141431,-0.36957246,-0.9071762,11.075885,0.080151364,-0.04270935,-0.1400818,77.64611621,12.87813423,3.42
152179141453,-0.4681595,-0.5315048,10.43712,0.014788819,-0.059814453,0.007861328,77.64608021,12.8781446,3.87
152179141474,-0.4961563,-1.2085556,9.623919,0.022979736,0.018737793,0.05549469,77.64608021,12.8781446,3.87
152179141495,0.32686004,-1.3268783,9.832092,-0.03590088,0.04389801,0.02129364,77.64608021,12.8781446,3.87
152179141516,0.4492508,-0.83108675,8.929642,0.042156983,-0.011314392,-0.12713471,77.64608021,12.8781446,3.87
152179141538,-0.20375061,-0.8290512,10.397161,-0.0235672,-0.091329955,-0.13116913,77.64608021,12.8781446,3.87
152179141559,-0.07501678,-1.2416961,8.723978,-0.038960267,-0.12334137,0.02105255,77.64604213,12.87815397,3.92
152179141580,-0.80183566,-0.82175446,10.007129,-0.0064682006,-0.036721803,0.1342926,77.64604213,12.87815397,3.92
152179141602,-0.23772888,-0.49489442,9.648806,0.023341369,0.068574525,0.22200927,77.64604213,12.87815397,3.92
152179141623,0.8148758,-0.9096893,9.885214,0.016986083,0.08067169,0.01933899,77.64604213,12.87815397,3.92
152179141644,0.070466615,-0.7399231,9.845732,-0.02442627,-0.0071640015,-0.07778015,77.64600776,12.87816316,3.42
152179141665,0.06735382,-1.1651261,9.247286,0.035560608,-0.07911682,-0.06397705,77.64600776,12.87816316,3.42
152179141687,-0.5995239,-1.0634277,9.968485,-0.028326416,-0.049427796,0.08995056,77.64600776,12.87816316,3.42
152179141708,-0.26189423,-1.064627,9.779094,-0.041036986,0.005177307,0.17888641,77.64600776,12.87816316,3.42
152179141729,-0.28068084,-0.9087326,9.649159,0.070991516,0.09716187,0.14638825,77.64600776,12.87816316,3.42
152179141750,0.16115418,-1.0176086,9.666391,0.060601808,0.17632751,0.122442625,77.64597228,12.87816886,3.6
152179141772,1.1391022,-0.7957932,9.890121,-0.037983704,0.074072264,-0.18578033,77.64597228,12.87816886,3.6
152179141793,-0.14500579,-0.63032687,9.402464,-0.012696838,-0.08131409,-0.2226822,77.64597228,12.87816886,3.6
152179141814,-0.7593628,-0.93996125,10.345833,0.024195861,-0.100494385,-0.08743439,77.64597228,12.87816886,3.6
152179141835,-0.35641328,-0.69792634,6.83544,-0.2239273,-0.05114136,0.07931824,77.64597228,12.87816886,3.6
152179141857,-1.0362122,-0.2704483,14.24482,0.39046937,0.05819092,0.06893768,77.64593882,12.87817615,3.21
152179141878,-0.21152648,-1.6893921,6.8296995,0.20550995,0.043658447,0.053793333,77.64593882,12.87817615,3.21
152179141899,-0.4877762,0.58857423,11.163218,-0.44346315,0.032299805,-0.03917694,77.64593882,12.87817615,3.21
152179141920,-0.38417053,-0.0346344,7.106908,0.23371887,0.016542053,-0.0593338,77.64593882,12.87817615,3.21
152179141942,0.060536195,-0.40014037,10.669942,-0.055934142,0.10926209,-0.15963593,77.64590648,12.87818183,3.2
152179141963,-0.02416687,-0.39822692,7.9638977,-0.06547394,-0.09047699,-0.25517425,77.64590648,12.87818183,3.2
152179141984,-0.16163635,-0.057130434,11.213831,0.07868347,-0.1931015,-0.25261077,77.64590648,12.87818183,3.2
152179142005,-1.1398224,-0.8605194,8.76609,-0.12288208,-0.23855133,0.036198426,77.64590648,12.87818183,3.2
152179142027,-0.43202668,-0.404805,11.257378,-0.08122406,-0.10256958,0.2717331,77.64590648,12.87818183,3.2
152179142048,-0.2798416,-0.8258209,9.045812,0.05168152,0.019224549,0.2623245,77.64587579,12.87818794,2.86
152179142069,0.93511355,-0.3622116,10.388782,0.09627686,0.10326996,0.17387542,77.64587579,12.87818794,2.86
152179142091,0.15864258,-0.86159515,9.26344,0.02822876,0.07626953,0.0342453,77.64587579,12.87818794,2.86
152179142112,-0.24215546,-0.1850235,10.343081,0.045576476,0.05476532,0.02080841,77.64587579,12.87818794,2.86
152179142133,0.26787567,-1.2427734,9.213428,-0.046777345,0.026919555,0.023252869,77.64587579,12.87818794,2.86
152179142154,-0.312146,0.05557251,9.895144,0.057548523,0.019100953,0.035101317,77.64584503,12.87819181,2.91
152179142176,0.027635192,-0.37537232,11.192172,-0.038342286,0.038768005,0.0028518676,77.64584503,12.87819181,2.91
152179142197,0.022853088,-0.7558319,8.559832,9.857178E-4,-0.0017822266,-0.003866577,77.64584503,12.87819181,2.91
152179142218,0.06711731,-0.96221316,10.12689,-0.0663208,0.028504943,0.028015137,77.64584503,12.87819181,2.91
152179142240,-0.040560912,-1.2480347,10.764338,-0.10713043,0.03412781,-0.0097320555,77.64581203,12.87819617,3.46
152179142261,0.46408692,-1.1672806,9.2274275,0.17361602,-0.02401886,-0.06837158,77.64581203,12.87819617,3.46
152179142282,-0.65802765,-0.7285538,10.994764,0.09054108,-0.017178345,-0.044552613,77.64581203,12.87819617,3.46
152179142303,0.09355469,-1.2403809,8.781525,0.03043213,-0.047966003,-0.020603944,77.64581203,12.87819617,3.46
152179142324,-0.5828949,-0.9941589,9.867386,-0.092703246,0.02337494,0.07638397,77.64581203,12.87819617,3.46
152179142346,0.49662933,-0.73824614,9.992891,-0.136203,0.008230591,-0.0026550293,77.6457759,12.87820069,3.53
152179142367,0.32398683,-0.751767,9.654904,0.08125,-0.048207093,-0.12677002,77.6457759,12.87820069,3.53
152179142388,-0.7774292,-0.8991623,10.786349,0.049853515,-0.08057861,-0.023170471,77.6457759,12.87820069,3.53
152179142409,-0.65575564,-1.2296082,8.648605,-0.033345032,-0.022799682,0.16031647,77.6457759,12.87820069,3.53
152179142431,-0.2782852,-0.37621307,10.332672,-0.01819458,0.09679413,0.17913055,77.6457759,12.87820069,3.53
152179142452,0.101933286,-0.9458221,9.72334,-0.02124939,0.11230926,0.028871154,77.64574439,12.87820659,2.93
152179142473,0.7697708,-0.91986084,8.411115,-0.13070527,0.062220763,-0.09366455,77.64574439,12.87820659,2.93
152179142494,-0.23868561,0.0048446655,12.175626,0.32266694,-0.0022781373,-0.19677734,77.64574439,12.87820659,2.93
152179142516,-0.14045867,-2.2674987,8.248283,0.14368439,-0.04332123,-0.07937012,77.64574439,12.87820659,2.93
152179142537,-0.05348053,0.0017349243,8.836319,-0.38628387,-0.06653595,0.009197998,77.64574439,12.87820659,2.93
152179142558,-0.08710022,-0.7957916,9.476641,0.13427734,-0.085221864,-0.114312746,77.64571711,12.87821364,2.73
152179142579,-0.7298111,-0.18035737,10.632612,9.872436E-4,0.00713501,0.1707016,77.64571711,12.87821364,2.73
152179142601,0.029907227,-0.6495926,9.554405,0.04007721,0.14065552,0.18536377,77.64571711,12.87821364,2.73
152179142622,1.1351532,-0.48508453,9.843699,0.054620363,0.044265747,-0.21021576,77.64571711,12.87821364,2.73
152179142643,0.043429565,-0.6546173,9.696182,-0.05544739,-0.10489044,-0.25346375,77.64568888,12.87821977,3.06
152179142664,-0.7438095,-1.1715896,9.459292,-0.18262482,-0.11772156,-0.011325073,77.64568888,12.87821977,3.06
152179142686,-0.23354188,0.63559264,9.237236,0.27538452,-0.029884338,0.079444885,77.64568888,12.87821977,3.06
152179142707,-0.026681518,-2.7256057,8.210477,0.2343338,-0.10281982,0.052323915,77.64568888,12.87821977,3.06
152179142728,-1.0402817,0.49369964,8.978094,-0.20840454,-0.05444031,0.23618774,77.64568888,12.87821977,3.06
152179142749,0.16713867,-0.6135788,9.317995,0.030795287,0.04561157,0.18682556,77.64565279,12.87822849,3.79
152179142771,0.39134216,-0.49609223,10.364138,-0.12715454,0.025941467,0.0920227,77.64565279,12.87822849,3.79
152179142792,-0.111982726,0.1260437,8.904276,0.13488007,-0.09939728,-0.07973633,77.64565279,12.87822849,3.79
152179142813,-0.9235123,-0.94845426,11.45072,0.08540497,0.01995697,0.17888184,77.64565279,12.87822849,3.79
152179142835,0.5551346,-0.1380066,8.768724,-0.13253173,0.055258177,0.21834716,77.64565279,12.87822849,3.79
152179142856,-0.5509491,-0.70917207,11.05351,-0.07353363,0.116586305,0.07895508,77.6456141,12.87823546,3.3
152179142877,-0.36598206,-0.3154312,9.002502,0.12962952,0.13027191,0.11633758,77.6456141,12.87823546,3.3
152179142898,0.029309083,0.37537384,10.52625,0.060601808,0.19795075,-0.020974731,77.6456141,12.87823546,3.3
152179142920,0.13950196,-1.0234711,6.2069674,-0.056063842,0.116220094,-0.16940613,77.6456141,12.87823546,3.3
152179142941,1.4642853,-0.811824,11.996282,-0.014277649,0.079940796,-0.25151366,77.64557694,12.87823929,3.45
152179142962,1.6864579,-1.012941,8.121706,0.19389495,-0.35327148,-0.6460037,77.64557694,12.87823929,3.45
152179142983,-1.3142593,-1.0331589,9.739253,-0.19154052,-0.3865036,-0.02440033,77.64557694,12.87823929,3.45
152179143005,-1.9361572,-0.8849243,8.920189,0.06768646,-0.20714875,0.28554687,77.64557694,12.87823929,3.45
152179143026,-1.0048676,-1.0142609,11.162623,0.13745117,0.26526946,0.6336136,77.64557694,12.87823929,3.45
152179143047,1.4248062,-1.1957535,8.808322,-0.10932007,0.433992,0.28236848,77.64553374,12.87824519,4.19
152179143069,1.1150528,-0.47695008,9.801943,0.0066040037,0.33564454,-0.27472228,77.64553374,12.87824519,4.19
152179143090,0.96119535,-1.0326843,11.159513,0.081251524,0.06820984,-0.53849185,77.64553374,12.87824519,4.19
152179143111,-1.1537018,-0.9900894,10.8659115,0.08406067,-0.15632477,-0.45663756,77.64553374,12.87824519,4.19
152179143132,-1.0881379,-1.3000824,9.392891,0.012467956,-0.102206424,-0.060185242,77.64553374,12.87824519,4.19
152179143153,-0.3848877,-0.873439,9.929721,-0.04763031,0.04499664,0.033633422,77.64548681,12.87825455,4.11
152179143175,0.44997102,-0.54609984,9.905072,0.04386749,0.073826596,-0.1854126,77.64548681,12.87825455,4.11
152179143196,1.3080337,-0.5063797,9.728602,0.09994201,-0.12871857,-0.44906312,77.64548681,12.87825455,4.11
152179143217,-0.30544585,-0.45601043,11.49008,0.11459961,-0.461026,-0.45150298,77.64548681,12.87825455,4.11
152179143210,-2.9306107,-0.8035675,10.360907,0.07966308,-0.42449647,0.14077301,77.64544579,12.8782742,3.95
152179143232,-0.91202545,-1.3722245,9.936659,-0.01941986,-0.054808043,0.69799346,77.64544579,12.8782742,3.95
152179143253,-0.26488495,-1.6300507,9.904956,-0.097105406,0.31817168,0.6414307,77.64544579,12.8782742,3.95
152179143274,1.5421708,-0.6506683,12.545314,0.09994812,0.34565887,0.164476,77.64544579,12.8782742,3.95
152179143295,0.7823318,-1.2956527,9.342639,0.4120926,0.07248535,-0.24723358,77.64544579,12.8782742,3.95
152179143317,0.57714844,-0.13609314,10.225832,-0.30137175,-0.18760987,-0.34265137,77.64540643,12.87829173,3.71
152179143338,-2.0809188,0.35419768,9.628464,-0.05263977,-0.18821716,0.008096313,77.64540643,12.87829173,3.71
152179143360,-0.7012207,0.02709961,10.30647,0.061216734,0.012382507,0.31486663,77.64540643,12.87829173,3.71
152179143380,-1.1402985,0.31304017,9.843699,0.022975158,0.19001313,0.29849395,77.64540643,12.87829173,3.71
152179143402,0.03505554,0.0974472,11.053752,-0.06253815,0.3041214,0.09141388,77.64540643,12.87829173,3.71
152179143423,1.0827515,-0.9844681,8.322939,2.5787353E-4,0.24340057,-0.14069977,77.64536372,12.87830222,4.13
152179143444,1.0363327,-0.5519638,9.707667,-0.0078063966,0.13209991,-0.39347228,77.64536372,12.87830222,4.13
152179143465,0.56625974,-1.068219,8.084735,0.03677826,-0.12615052,-0.49084625,77.64536372,12.87830222,4.13
152179143487,-1.0799987,-0.9951126,10.278236,0.021507263,-0.22291107,-0.27044678,77.64536372,12.87830222,4.13
152179143508,-0.9371506,-0.18239136,10.061084,0.031039428,-0.18381652,-0.040887453,77.64536372,12.87830222,4.13
152179143530,-0.97364044,0.23970032,10.737058,0.06915741,-0.10562744,0.024595642,77.64532238,12.87831644,4.23
152179143550,-0.22037964,-0.68440855,8.939931,-0.016236877,-0.08387909,0.02325592,77.64532238,12.87831644,4.23
152179143572,-0.10923614,-0.729393,8.148982,0.053761292,-0.103060916,0.023371886,77.64532238,12.87831644,4.23
152179143593,-1.047699,-0.2934204,8.801386,0.0680603,-0.051626585,0.100819394,77.64532238,12.87831644,4.23
152179143614,-1.1436508,-0.037986755,10.79688,-0.091488644,-0.0053283693,0.1653244,77.64528239,12.87833614,4.42
152179143635,-0.80219424,0.09194489,11.4866085,-0.010372925,0.035957336,0.12171173,77.64528239,12.87833614,4.42
152179143657,0.49064484,-0.19052887,11.053627,0.11667786,0.0055389404,0.03106842,77.64528239,12.87833614,4.42
152179143678,0.9753128,-1.341954,8.005771,-0.04494629,-0.062991336,-0.0048477175,77.64528239,12.87833614,4.42
152179143700,-1.1201996,-0.004005432,9.305435,-0.057893373,-0.08339234,0.07736053,77.64528239,12.87833614,4.42
152179143808,-0.5697342,-0.21828613,11.942082,0.013450623,-0.024752807,0.17301635,77.6452401,12.87835267,4.58
152179143829,0.14978942,-0.6361923,8.899729,0.05596161,0.033273317,0.17448273,77.6452401,12.87835267,4.58
152179143850,0.21176147,-0.6054428,10.678316,-0.0051208497,0.09398346,0.17008667,77.6452401,12.87835267,4.58
152179143872,-0.33990327,-0.14099579,8.897575,-0.030897522,0.118299864,0.102651976,77.6452401,12.87835267,4.58
152179143893,0.75361633,-0.61130524,9.728363,0.038002014,0.13527831,0.056230165,77.6452401,12.87835267,4.58
152179143914,-0.27075043,-0.15188447,10.261365,0.013322448,0.117686465,-0.048945617,77.6452004,12.87836473,4.05
152179143935,-0.32769927,-0.23742676,9.684817,0.013813782,0.076638795,-0.09182739,77.6452004,12.87836473,4.05
152179143957,0.9641861,-0.95072937,9.581325,0.005873108,-0.028053284,-0.16659698,77.6452004,12.87836473,4.05
152179143978,-0.26823884,-0.42765504,10.566213,-0.0084198,-0.15058593,-0.16623382,77.6452004,12.87836473,4.05
152179143999,-1.068518,-0.5349762,9.59891,0.04008026,-0.1552246,0.0021118163,77.64515734,12.87837673,4.85
152179144020,-0.50895387,-0.29042816,9.379732,-0.015139771,-0.050650023,0.13832398,77.64515734,12.87837673,4.85
152179144042,-0.04079895,-0.6000595,9.96358,-0.058139037,0.094595335,0.15787049,77.64515734,12.87837673,4.85
152179144008,0.72215426,-0.43196565,9.232333,0.047044374,0.09997101,0.0041915895,77.64515734,12.87837673,4.85
152179144029,0.006576538,-0.13776703,9.830299,0.0146698,0.036080934,-0.06617431,77.64515734,12.87837673,4.85
152179144050,0.15912323,-0.28157502,10.548144,0.02077942,-0.026339721,-0.0653183,77.64508979,12.87840444,5.31
152179144072,-0.57547456,-0.5544769,9.577619,0.074653625,-0.050160218,-0.029771423,77.64508979,12.87840444,5.31
152179144093,-0.28235474,-0.493219,10.440707,-0.121176146,-0.03208313,0.039863586,77.64508979,12.87840444,5.31
152179144114,-0.026921082,-0.56859434,8.630417,0.06585846,4.7302245E-5,0.030699158,77.64508979,12.87840444,5.31
152179144135,0.19441529,-0.32237244,9.826469,-0.095515445,0.037054442,0.03290405,77.64508979,12.87840444,5.31
152179144157,0.2922821,-0.43962097,9.851117,-2.3040772E-4,0.018611144,0.0037078857,77.64503542,12.878415,5.05
152179144178,0.0855423,-1.1204971,9.277916,0.04618988,0.027038574,-0.02280121,77.64503542,12.878415,5.05
152179144199,0.07525329,-0.5499283,9.282942,-0.037864685,-0.028536987,-0.01840515,77.64503542,12.878415,5.05
152179144220,-0.2556778,-1.1502869,10.035724,-0.0070755007,-0.0064300536,-0.006555176,77.64503542,12.878415,5.05
152179144242,0.3148926,-0.6865616,8.648603,-0.011839295,-0.014854431,-3.250122E-4,77.64503542,12.878415,5.05
152179144263,-0.70348966,-0.03451691,9.823482,-0.097717285,-0.017050171,-0.0087509155,77.64498542,12.87842752,5.18
152179144284,-0.4080963,-0.13238068,9.8596115,0.024931336,-0.04918518,-0.016331483,77.64498542,12.87842752,5.18
152179144305,-0.34229583,-1.1398804,9.437159,-0.049095154,-0.024502564,0.044140626,77.64498542,12.87842752,5.18
152179144327,-0.13567352,-1.2001785,8.752573,0.0818634,0.043162536,0.11865387,77.64498542,12.87842752,5.18
152179144348,-0.034576416,-1.3697128,10.756798,0.009783936,0.14004211,0.042056274,77.6449398,12.87843662,5.07
152179144369,0.4426712,-0.6059219,9.31931,-0.00939331,0.09105377,-0.06544189,77.6449398,12.87843662,5.07
152179144390,-0.102293395,-1.3066604,9.861525,0.049847413,0.006640625,-0.15401459,77.6449398,12.87843662,5.07
152179144412,-0.043193053,-0.7917282,9.863798,-0.028208923,-0.047473144,-0.08596496,77.6449398,12.87843662,5.07
152179144433,-0.6482193,-0.4820923,10.065511,0.036901854,-0.018154908,-0.025370788,77.6449398,12.87843662,5.07
152179144454,-0.3410965,-1.3748535,10.102364,-0.028578186,0.04609375,0.018489074,77.64488326,12.87844881,5.26
152179144475,0.25076598,-0.5739807,9.755641,-0.05973053,0.06820679,-0.060308836,77.64488326,12.87844881,5.26
152179144497,0.08745575,-0.58462524,9.994444,0.02346344,0.011036682,-0.14350586,77.64488326,12.87844881,5.26
152179144506,-0.17874451,-1.6468033,8.668821,-0.048487853,-0.09768524,-0.17551574,77.64488326,12.87844881,5.26
152179144527,-0.14907837,-0.122572325,9.822044,0.13562164,-0.15376434,-0.075460814,77.64488326,12.87844881,5.26
152179144549,0.15385589,-1.4403,8.381803,0.05584564,-0.057617188,0.06685486,77.64484085,12.87846294,5.25
152179144570,-0.6898514,0.15020752,9.212588,-0.04384613,0.041578673,0.15946046,77.64484085,12.87846294,5.25
152179144591,0.30879363,-0.63930357,10.245094,-0.041893005,0.13772126,0.012254333,77.64484085,12.87846294,5.25
152179144612,0.29132384,-0.225943,9.105871,-0.02808838,0.111946106,-0.07142792,77.64484085,12.87846294,5.25
152179144634,0.7527817,-0.32811585,9.852313,0.10593109,-0.03061676,-0.20448151,77.64479228,12.87848043,5.37
152179144655,-0.26417083,-0.42095643,9.984756,-0.011100769,-0.14642945,-0.14644012,77.64479228,12.87848043,5.37
152179144676,-0.5673401,-0.3876953,8.740367,-0.04470215,-0.14289093,0.02263794,77.64479228,12.87848043,5.37
152179144697,-0.5685364,0.15200195,10.514885,0.09566345,-0.019369507,0.108882144,77.64479228,12.87848043,5.37
152179144719,-0.19704895,-1.1294739,10.186232,-0.0117202755,0.06221924,0.081149295,77.64479228,12.87848043,5.37
152179144740,-0.019500732,-0.81242216,9.568403,-0.017581176,-0.004722595,-0.023905944,77.64472658,12.87850183,5.97
152179144761,0.49926147,-1.5643692,9.027387,-0.04824524,-0.053092957,-0.013031006,77.64472658,12.87850183,5.97
152179144782,-0.5310898,-0.34570313,9.441948,0.003793335,-0.06934204,0.022888184,77.64472658,12.87850183,5.97
152179144804,-0.7403412,-1.2873993,11.365535,-0.0068344115,-0.06616364,0.055009462,77.64472658,12.87850183,5.97
152179144825,-0.316214,-1.085324,12.118437,0.007463074,-0.043074034,0.09641876,77.64472658,12.87850183,5.97
152179144847,-0.91788787,-1.4869598,11.278316,0.060484312,0.0526947,0.16813049,77.64467775,12.87852378,5.76
152179144867,-0.015673827,-0.6444473,10.907549,-1.15966795E-4,0.16020508,0.16141662,77.64467775,12.87852378,5.76
152179144889,0.10683594,-1.6783829,9.062322,-0.023080444,0.14615326,-0.020115662,77.64467775,12.87852378,5.76
152179144910,0.36669618,-1.1802032,9.708623,0.10324402,0.054159544,-0.110523984,77.64467775,12.87852378,5.76
152179144932,-0.045347594,-1.1167892,10.307309,-0.049461365,0.014828491,-0.10710144,77.64467775,12.87852378,5.76
152179144953,-0.12885436,-1.130429,9.187944,-0.04848633,0.01690216,-0.022071838,77.64461659,12.87853255,5.35
152179144974,0.028114319,-1.0831711,9.0114765,-0.16772309,0.02678833,-0.06605224,77.64461659,12.87853255,5.35
152179144995,0.0457016,-0.5322235,9.664477,0.13635254,-0.073983766,-0.16061401,77.64461659,12.87853255,5.35
152179145017,-0.4737808,-1.572023,10.595644,0.05596771,-0.094142154,-0.09781647,77.64461659,12.87853255,5.35
152179145037,-0.6165115,-1.0326812,8.976898,-0.3296005,-0.045155335,0.095565796,77.64456621,12.87854902,4.86
152179145059,0.7554108,-1.809871,10.864716,0.19512025,0.11488037,-0.083409116,77.64456621,12.87854902,4.86
152179145080,0.4516449,-3.195552,11.167648,-0.060583495,0.04951782,-0.06483612,77.64456621,12.87854902,4.86
152179145102,-0.43645173,-0.7363327,9.480827,0.28479004,-0.03842926,-0.10783386,77.64456621,12.87854902,4.86
152179145123,-0.34863585,-0.5347382,11.361348,0.050830077,-0.004963684,-0.015596008,77.64456621,12.87854902,4.86
152179145144,0.2739746,-1.117746,7.3350616,-0.049465943,-0.024256896,0.0039489744,77.64452286,12.87856226,4.8
152179145165,0.9128586,-1.0488342,8.141325,-0.02185669,0.018730164,-0.025372315,77.64452286,12.87856226,4.8
152179145187,-0.8624924,-0.1162323,9.587428,-0.1072464,0.007133484,-0.029644776,77.64452286,12.87856226,4.8
152179145208,0.47318116,-0.15690918,9.767248,0.065979004,1.6784668E-4,-0.04980316,77.64452286,12.87856226,4.8
152179145229,-0.043551635,-0.22187348,10.284338,0.0050186156,-0.041734315,-0.07472382,77.64452286,12.87856226,4.8
152179145250,-0.49938506,-0.050427247,9.925174,0.0024520874,-0.09072113,-0.028178405,77.64448541,12.87858633,4.82
152179145271,-0.5119461,-0.14649963,10.043261,-0.010125732,-0.068977356,0.030828858,77.64448541,12.87858633,4.82
152179145293,-0.5313263,0.077467345,9.910098,-0.061309814,-0.044172667,0.0663681,77.64448541,12.87858633,4.82
152179145314,-0.3208786,-0.073638916,9.631098,0.04814453,0.023991395,0.11157074,77.64448541,12.87858633,4.82
152179145335,0.013757324,-0.30765837,10.01945,-0.0026794435,0.08225708,0.079804994,77.6444329,12.87861355,5.45
152179145357,0.04486542,-0.19280091,9.794286,-0.007077026,0.06478576,0.0015075684,77.6444329,12.87861355,5.45
152179145378,0.082789615,-0.23228149,10.117679,0.015888978,0.01690216,-0.05860138,77.6444329,12.87861355,5.45
152179145399,-0.31896514,-0.56309205,9.714488,0.0073379516,-0.03770294,-0.052005004,77.6444329,12.87861355,5.45
152179145420,-0.10480805,-0.44033965,9.775742,-0.025888061,-0.01888733,0.0019989014,77.6444329,12.87861355,5.45
152179145442,-0.326622,-0.345224,9.848844,0.04118042,0.036938477,0.039622497,77.64438559,12.87863343,5.72
152179145463,0.18986817,0.0011383056,9.806132,-0.014776612,0.020439148,-0.02451477,77.64438559,12.87863343,5.72
152179145484,-0.33667296,-0.37621155,9.445173,-0.033340454,-0.01778717,-0.042352296,77.64438559,12.87863343,5.72
152179145505,-0.19298553,-0.46821442,9.819651,0.018333435,-0.011436462,0.015431213,77.64438559,12.87863343,5.72
152179145527,0.1862793,-0.32919464,9.745114,0.07294464,-0.008015442,-0.025489807,77.64438559,12.87863343,5.72
152179145548,-0.10097809,-0.46019897,9.714726,-0.09637604,-0.07410431,-0.050904848,77.644335,12.8786496,5.99
152179145569,-0.27745056,-0.33289948,8.814784,0.004408264,-0.09035339,0.022761535,77.644335,12.8786496,5.99
152179145590,-0.39673004,-0.5508865,10.584877,0.1142395,-0.0021530152,0.07846222,77.644335,12.8786496,5.99
152179145612,0.007536316,-0.96257323,10.763262,-0.2666809,0.097773746,0.106314085,77.644335,12.8786496,5.99
152179145633,-0.21487427,0.38769683,9.256022,0.33072966,0.11023407,0.02935486,77.64427489,12.87867593,6.44
152179145654,-0.07441864,-1.1438293,10.474564,-0.16759796,0.16484375,-0.043940734,77.64427489,12.87867593,6.44
152179145675,-0.019262696,0.062991336,8.617735,-0.030163575,0.014459228,-0.0804657,77.64427489,12.87867593,6.44
152179145697,-0.12131653,-0.92033994,10.178694,-0.071575925,0.026309203,-0.10453339,77.64427489,12.87867593,6.44
152179145718,-0.29838714,0.035952758,9.864397,0.13525085,-0.02401886,-0.035754394,77.64427489,12.87867593,6.44
152179145739,-0.35437775,-0.7607376,10.000669,-0.0150115965,0.10864258,-0.052001953,77.64421944,12.87870039,6.63
152179145760,0.25914305,-0.17006989,9.102041,-0.046531677,0.018370057,-0.14423828,77.64421944,12.87870039,6.63
152179145782,0.0333786,-0.74183655,11.668706,0.14710236,-0.031591795,-0.17075042,77.64421944,12.87870039,6.63
152179145803,-0.19238433,-1.3149154,9.696062,0.009053039,-0.1748993,-0.14008483,77.64421944,12.87870039,6.63
152179145824,-0.92985076,-0.8941391,9.495306,-0.052027892,-0.1685501,-0.016941834,77.64421944,12.87870039,6.63
152179145845,-0.2383255,-1.1852249,9.094267,-0.0050003054,-0.048085023,0.07931366,77.64416231,12.87873215,6.78
152179145867,0.101451114,-1.4209182,9.871695,0.021755982,0.005545044,0.023127746,77.64416231,12.87873215,6.78
152179145888,-0.18281403,-0.68021697,9.269302,0.021142578,0.013845826,0.019711304,77.64416231,12.87873215,6.78
152179145909,-0.7865219,-0.9994232,11.228665,-0.03908539,0.036808778,0.009690857,77.64416231,12.87873215,6.78
152179145931,-0.22767791,-1.1115265,11.7821245,0.0059921267,0.07626953,0.004562378,77.64411971,12.87876008,6.52
152179145952,-0.26345062,-1.2412155,11.121945,-0.03883667,0.15677948,0.025820922,77.64411971,12.87876008,6.52
152179145973,0.23365478,-0.11264191,10.320828,-0.0177063,0.20319977,-0.08144226,77.64411971,12.87876008,6.52
152179145994,1.1424545,-1.5844666,9.550458,0.091026306,0.022767639,-0.32188112,77.64411971,12.87876008,6.52
152179146015,-0.2494522,-1.335254,8.722905,0.06121521,-0.21374969,-0.29060516,77.64411971,12.87876008,6.52
152179146037,-0.75481874,-0.66777647,10.377658,-0.037736513,-0.21680756,-0.016453553,77.64407289,12.87878834,6.17
152179146058,-0.864888,-1.8467209,6.634923,-0.065834045,-0.04026947,0.11914368,77.64407289,12.87878834,6.17
152179146079,0.08530426,0.15834808,12.075124,0.13293457,0.09203186,0.09446716,77.64407289,12.87878834,6.17
152179146101,0.39206085,-2.5049865,8.424518,0.012968445,0.15384826,-0.048092652,77.64407289,12.87878834,6.17
152179146122,0.39385527,0.3452255,9.527008,0.040942382,-0.03526306,-0.15438537,77.64407289,12.87878834,6.17
152179146143,-0.41108856,-1.5253646,10.047087,-0.037611388,-0.031105042,-0.14448547,77.64403931,12.87881352,5.68
152179146164,0.15026703,-0.49956053,9.48358,-0.18055114,-0.08082733,-0.0350235,77.64403931,12.87881352,5.68
152179146186,-0.09104767,-1.097049,9.398631,0.111061096,-0.08180542,-0.07069244,77.64403931,12.87881352,5.68
152179146207,0.12119446,-1.2914673,7.9148436,0.032873534,-0.03758087,0.018850708,77.64403931,12.87881352,5.68
152179146228,-0.219664,-0.5376083,9.11999,-0.050559998,0.010421753,0.05635376,77.64403931,12.87881352,5.68
152179146249,-0.15350036,-0.5551941,11.61367,-0.06839905,0.05476532,0.020681763,77.64400813,12.87885158,5.51
152179146271,-0.61017,-0.68835604,10.144476,0.10470581,0.06905975,-0.033068847,77.64400813,12.87885158,5.51
152179146292,-0.15350036,0.33948213,10.938416,0.023338318,-5.6762696E-4,-0.09231873,77.64400813,12.87885158,5.51
152179146313,-0.4029541,-0.3235672,10.183838,0.05217438,-0.10146942,-0.1133316,77.64400813,12.87885158,5.51
152179146334,-0.76977235,-0.7491318,9.673929,-0.03920593,-0.1000061,0.02312317,77.64396958,12.87888358,5.46
152179146356,-0.053001404,-1.0865219,10.304794,-0.07108612,0.022273254,0.12733307,77.64396958,12.87888358,5.46
152179146377,0.19776611,-0.7911255,9.742241,0.039349366,0.10815735,0.07186432,77.64396958,12.87888358,5.46
152179146398,0.40426636,-0.6458801,10.177257,-0.007446289,0.08066864,-0.1001358,77.64396958,12.87888358,5.46
152179146419,-0.12036133,-0.69230497,10.189222,0.099336244,-0.048692323,-0.16489105,77.64396958,12.87888358,5.46
152179146441,-0.59868467,-1.6867584,9.297055,-0.010614013,-0.11869812,-0.082423404,77.64393728,12.87891241,5.13
152179146462,-0.67848814,-1.413379,9.671774,0.007217407,-0.06213684,0.10888519,77.64393728,12.87891241,5.13
152179146483,0.089968875,-1.822792,9.355565,0.025787354,0.05697174,0.10387115,77.64393728,12.87891241,5.13
152179146504,0.43010864,-1.966481,10.006409,-0.12202606,0.01776123,-0.009245301,77.64393728,12.87891241,5.13
152179146526,-0.05156555,-1.5660416,8.409441,0.037879944,-0.0434433,-0.07802582,77.64393728,12.87891241,5.13
152179146547,-0.26943207,-0.9011963,10.815066,-0.03150635,-0.05968933,-0.013397217,77.6439036,12.87894358,4.6
152179146568,-0.21260376,-0.98171693,8.71967,-0.017581176,-0.038186647,0.0965393,77.6439036,12.87894358,4.6
152179146589,-0.13328247,-1.3060623,10.515246,-0.003413391,-0.014608765,0.06404571,77.6439036,12.87894358,4.6
152179146611,-0.10684204,-1.4219925,8.182962,-0.08330536,-0.023649598,0.14088897,77.6439036,12.87894358,4.6
152179146632,-0.36574402,-1.3234116,14.251038,0.13782044,0.07737732,0.12610778,77.64387789,12.87896639,3.77
152179146653,-0.2391632,-1.9807174,7.928604,0.3247467,-0.06471558,0.16104889,77.64387789,12.87896639,3.77
152179146674,0.14033814,0.27918395,11.135943,-0.23845673,0.09191284,0.011761474,77.64387789,12.87896639,3.77
152179146696,-0.034577943,-0.6527008,8.561864,0.051690675,0.053549193,0.029844666,77.64387789,12.87896639,3.77
152179146717,0.09499359,-0.20285186,11.409322,-0.048849486,0.043409728,-0.045281984,77.64387789,12.87896639,3.77
152179146738,0.0407959,0.21601257,9.10599,0.009661865,-0.08326721,-0.1220047,77.6438539,12.87898166,3.23
152179146760,-0.48538667,-0.6778275,10.294269,0.014057922,-0.075085446,-0.020484924,77.6438539,12.87898166,3.23
152179146781,-0.12180023,-0.38063812,9.750856,-0.073898315,-0.08265839,0.09666443,77.6438539,12.87898166,3.23
152179146802,-0.012564087,-0.59730685,9.26021,0.05315094,-0.055049133,0.0840805,77.6438539,12.87898166,3.23
152179146823,-0.29671174,-0.7243683,10.115764,-0.054103088,-0.054071046,0.10301819,77.6438539,12.87898166,3.23
152179146845,0.21559143,-0.7561905,8.969362,-0.0039031983,-0.06470032,0.12733002,77.64382391,12.8790029,3.64
152179146866,0.2019516,-0.5147568,10.157753,0.08271484,-0.018273925,0.16935425,77.64382391,12.8790029,3.64
152179146887,-0.119880676,-0.5348587,10.314725,-0.07634125,-0.012167359,0.14479828,77.64382391,12.8790029,3.64
152179146908,0.07381592,-0.56727904,9.063042,0.049972534,-0.03037262,0.16605683,77.64382391,12.8790029,3.64
152179146930,-0.37531585,-0.40456542,11.032694,0.04729309,0.094473265,0.30374146,77.64382391,12.8790029,3.64
152179146951,0.40462494,-0.99762726,10.061087,0.023468018,0.25916594,0.3102188,77.64379242,12.87901579,4.0
152179146972,1.5391815,-0.6272171,9.684934,-0.030404663,0.2269104,-0.03783722,77.64379242,12.87901579,4.0
152179146993,0.74811554,-0.72292936,9.677876,-0.010736084,-5.645752E-4,-0.36024016,77.64379242,12.87901579,4.0
152179147015,-0.95186615,-0.50602114,9.349101,0.0051376345,-0.1366562,-0.19750671,77.64379242,12.87901579,4.0
152179147036,-1.1947387,-0.21876374,10.253708,-0.011715698,0.0030990602,0.13136292,77.64376219,12.87902786,3.73
152179147057,-0.10145874,-0.82953185,10.106306,0.018948365,0.1193985,0.07736816,77.64376219,12.87902786,3.73
152179147078,0.8586639,-0.6400177,9.847768,0.072947696,0.08482361,-0.10881348,77.64376219,12.87902786,3.73
152179147100,-0.21093139,-0.7200592,10.130241,-0.036761474,-0.07141876,-0.2737442,77.64376219,12.87902786,3.73
152179147121,-0.19178466,-0.8389832,8.700409,0.01038971,-0.15742798,-0.12726136,77.64376219,12.87902786,3.73
152179147142,-0.88187563,-0.893779,10.182884,-0.13266297,-0.07984924,0.06954956,77.64372894,12.8790455,3.92
152179147163,0.13052826,-1.0061219,9.682543,1.373291E-4,0.09459686,0.16446838,77.64372894,12.8790455,3.92
152179147185,1.1741593,-0.52169496,8.210955,0.25168458,0.21542358,-0.027940368,77.64372894,12.8790455,3.92
152179147206,-0.0668808,-1.04991,10.872971,-0.18592072,0.14175415,-0.13324586,77.64372894,12.8790455,3.92
152179147227,0.27002716,0.11874695,9.602144,0.15565948,-0.2763031,-0.43183595,77.64372894,12.8790455,3.92
152179147249,-1.8086166,-1.0022933,8.771357,0.0609787,-0.2997574,-0.050050355,77.64369597,12.87907025,4.16
152179147270,-1.3758774,0.17844543,10.329203,-0.1165329,-0.022187805,0.4441223,77.64369597,12.87907025,4.16
152179147291,0.2289917,-0.28157195,9.408323,0.07538605,0.2251999,0.21443939,77.64369597,12.87907025,4.16
152179147312,1.4525604,-1.3039093,8.642741,-0.060946655,0.16948242,-0.06531982,77.64369597,12.87907025,4.16
152179147334,0.8009949,-0.6330795,8.524775,0.046922304,-0.018029785,-0.2746048,77.64366824,12.87907849,4.39
152179147355,0.2684738,-0.41234285,9.324697,0.024810791,-0.16744538,-0.19812469,77.64366824,12.87907849,4.39
152179147376,-0.36693877,-0.08500519,9.011358,0.0135650635,-0.19908753,-0.010221863,77.64366824,12.87907849,4.39
152179147397,-0.52379,-0.21086884,9.453789,0.0056259157,-0.1296936,0.14186554,77.64366824,12.87907849,4.39
152179147419,-0.16498414,-0.26566163,9.434526,-0.0015823364,-0.035136413,0.22824097,77.64366824,12.87907849,4.39
152179147440,0.5950928,-0.9445084,9.120346,-0.0031692504,0.030455017,0.190979,77.64362798,12.87909776,4.62
152179147461,1.5674179,-1.290509,7.9831605,-3.616333E-4,0.015797425,0.064050294,77.64362798,12.87909776,4.62
152179147482,0.97663116,-0.95371705,7.574347,3.7231445E-4,-0.09524231,-0.013151551,77.64362798,12.87909776,4.62
152179147504,-2.2182693,-0.22785644,10.140886,0.0050186156,-0.05773773,0.17827606,77.64362798,12.87909776,4.62
152179147525,-0.4524826,-0.20655975,11.717038,0.012956237,0.11500092,0.32634735,77.64362798,12.87909776,4.62
152179147546,1.4626114,-0.9302704,8.669062,0.022369385,0.19514313,0.100213625,77.64358627,12.87911982,4.84
152179147567,0.18699951,-0.12125702,12.303999,-0.13314667,0.19403839,0.005781555,77.64358627,12.87911982,4.84
152179147589,0.12777558,-0.09876404,10.298933,0.30543366,0.09178772,-0.087919615,77.64358627,12.87911982,4.84
152179147610,0.15266266,-1.4300125,6.7770567,-0.18531494,0.12513885,-0.027937317,77.64358627,12.87911982,4.84
152179147631,0.09523316,0.08009796,7.8517914,-0.28134307,0.08140564,-0.12933807,77.6435481,12.87913719,4.58
152179147652,0.09332123,-0.5325821,11.103996,0.35442504,0.045246888,-0.1984909,77.6435481,12.87913719,4.58
152179147674,-0.6552765,-0.30837402,12.138174,-0.105781555,0.039872743,-0.10465851,77.6435481,12.87913719,4.58
152179147695,-0.40343016,-0.32273254,9.955205,0.10654144,-0.066653445,-0.20324859,77.6435481,12.87913719,4.58
152179147716,-0.3357132,-0.63846284,10.551016,0.013575745,-0.09462891,-0.16232605,77.6435481,12.87913719,4.58
152179147737,-0.03134613,-0.40743715,9.284137,-0.043600462,-0.1533966,-0.10624695,77.64350833,12.87915465,4.78
152179147759,-0.5503494,-0.37908325,11.762146,0.10189972,-0.18955842,-0.0943924,77.64350833,12.87915465,4.78
152179147780,-0.96885526,-1.099086,9.446012,-0.016481018,-0.14386597,0.12769775,77.64350833,12.87915465,4.78
152179147801,-0.0648468,-1.0409362,8.96386,-0.04348297,-0.010705566,0.18841553,77.64350833,12.87915465,4.78
152179147822,0.37495422,-1.146341,8.485171,0.006114197,0.1435852,0.18645783,77.64350833,12.87915465,4.78
152179147844,1.2080139,-1.1782852,9.733508,-0.0048843385,0.10473633,-0.041496277,77.64346383,12.87917841,5.16
152179147865,-0.4961548,-0.52899474,10.246053,0.008801269,0.0030975342,-0.095005795,77.64346383,12.87917841,5.16
152179147886,-0.71234435,-1.3554733,9.620569,-0.007444763,-0.014369202,-0.003501892,77.64346383,12.87917841,5.16
152179147907,0.2403595,-0.7905304,9.225156,-0.014770508,0.010186767,0.020321656,77.64346383,12.87917841,5.16
152179147929,0.052998353,-1.1700287,9.610997,-0.0030456544,0.018368531,-0.03404541,77.64346383,12.87917841,5.16
152179147950,-0.19238587,-1.0785034,9.873491,-0.020271301,0.0016326904,-0.020967102,77.64340614,12.87920037,4.98
152179147971,-0.030029297,-1.2125031,8.927365,0.005140686,-6.8511965E-4,-0.01657257,77.64340614,12.87920037,4.98
152179147992,0.3060379,-1.208435,9.930677,0.023832703,-0.08534698,-0.11492004,77.64340614,12.87920037,4.98
152179148014,-0.6023941,-0.74913025,9.944676,0.054374695,-0.13323823,-0.017063905,77.64340614,12.87920037,4.98
152179148035,-1.0813186,-1.2231506,10.056659,-0.004269409,-0.018154908,0.1923233,77.64336771,12.8792153,4.67
152179148056,0.3058014,-1.5020325,8.274846,-0.074272156,0.097651675,0.18731232,77.64336771,12.8792153,4.67
152179148078,0.40163118,-1.1033905,15.651201,-0.04628601,0.06808166,0.00821991,77.64336771,12.8792153,4.67
152179148099,-0.35138702,-2.0065613,6.016261,0.4368988,-0.029270936,-0.060920715,77.64336771,12.8792153,4.67
152179148120,-0.08219452,-1.4181656,11.729841,-0.7475494,0.06295929,0.04866028,77.64336771,12.8792153,4.67
152179148141,0.08326874,-0.78119963,9.528325,0.71875304,-0.040145874,-0.122494504,77.64333723,12.87923201,4.38
152179148163,0.57786405,-4.4356356,12.259494,-0.03590393,-0.004234314,-0.10197906,77.64333723,12.87923201,4.38
152179148184,-0.9767563,1.7784088,6.654785,-0.22636871,-0.09633942,0.26331177,77.64333723,12.87923201,4.38
152179148205,0.8737396,-0.4125824,7.9634185,0.20367126,0.05025482,-0.009492492,77.64333723,12.87923201,4.38
152179148214,-0.108996585,0.5644058,11.528605,-0.12239838,0.110968016,-0.040643312,77.64333723,12.87923201,4.38
152179148236,0.27110443,0.60472715,8.450358,0.024198914,-0.0022766113,-0.1486435,77.64331217,12.87925589,3.59
152179148257,-0.04809723,0.07268219,10.841031,0.07991028,-0.029759217,-0.14033508,77.64331217,12.87925589,3.59
152179148278,0.18867493,0.21409912,9.065313,-0.08049011,-0.17147522,-0.07240448,77.64331217,12.87925589,3.59
152179148299,-1.3107879,-0.04121399,9.717357,0.042401124,-0.1139328,0.08433075,77.64331217,12.87925589,3.59
152179148321,-0.6855469,-0.1918457,9.947309,-0.033215333,0.06369171,0.26574707,77.64327455,12.87927788,4.1
152179148342,-0.19070892,-0.3497711,9.69738,-0.009402466,0.1766922,0.12928315,77.64327455,12.87927788,4.1
152179148363,0.33320007,-1.3548752,10.225836,-0.02796936,0.11487732,-0.03575592,77.64327455,12.87927788,4.1
152179148385,0.085897826,-0.5605774,10.233849,-0.008418274,0.0375412,-0.10734558,77.64327455,12.87927788,4.1
152179148406,0.6923599,-1.4007003,9.592572,0.014666748,0.0039550783,-0.10099335,77.64327455,12.87927788,4.1
152179148427,0.25794524,-1.2585647,8.626709,0.0096557615,-0.011434937,-0.115652464,77.64322457,12.87929331,4.94
152179148448,0.073336795,-1.6061233,8.381683,-0.01904602,-0.054800414,-0.03758545,77.64322457,12.87929331,4.94
152179148469,0.08434601,-1.1373688,9.396719,0.01882019,-0.044177245,-0.022315979,77.64322457,12.87929331,4.94
152179148491,0.6366089,-0.92620546,10.194605,-0.02149353,-0.051869202,-0.086331174,77.64322457,12.87929331,4.94
152179148512,-0.4392044,-1.2211167,9.465634,0.029325867,-0.13995513,-0.08156891,77.64322457,12.87929331,4.94
152179148533,-0.60275114,-0.90012056,9.628464,6.210327E-4,-0.104039,0.102529906,77.64318037,12.87932018,5.11
152179148555,-0.049653627,-0.42227173,10.314366,0.015763855,0.030703735,0.20307465,77.64318037,12.87932018,5.11
152179148576,-0.24502715,-1.072882,9.303996,0.003919983,0.081034854,0.097277835,77.64318037,12.87932018,5.11
152179148597,0.028831482,-0.78191376,9.791658,-0.0053649903,0.028993225,0.002609253,77.64318037,12.87932018,5.11
152179148619,0.24287109,-0.70977175,9.645691,-0.0035339356,-0.04173126,0.010552978,77.64313434,12.87934525,4.92
152179148640,-0.7398621,-0.75679016,10.054148,0.009779358,-0.040383913,0.07052612,77.64313434,12.87934525,4.92
152179148661,-1.0821564,-0.0061599733,10.871776,-0.014401245,0.09520569,0.2027069,77.64313434,12.87934525,4.92
152179148682,0.3107086,-0.511644,8.406332,-0.0058547975,0.20479736,0.10314331,77.64313434,12.87934525,4.92
152179148703,0.8382019,-0.99499357,8.07014,-0.014167786,0.16582032,-0.11027984,77.64313434,12.87934525,4.92
152179148725,0.848851,-0.8751129,8.2435,0.025056457,-9.3536376E-4,-0.25981903,77.64309625,12.87936119,4.65
152179148746,-0.7541,-0.5944351,8.681505,0.1307312,-0.122242734,-0.1918869,77.64309625,12.87936119,4.65
152179148767,-1.6053498,-0.3077774,11.765257,-0.061558533,-0.09401703,0.0129852295,77.64309625,12.87936119,4.65
152179148788,-0.560881,0.075193785,10.6403885,0.010758972,-0.045274355,0.035348512,77.64309625,12.87936119,4.65
152179148810,0.630867,-0.9568283,9.712809,-0.036877442,0.05049286,0.047921754,77.64309625,12.87936119,4.65
152179148831,-0.10361175,-0.11180572,9.003937,0.018579101,0.017266845,-0.044671632,77.64306538,12.8793906,4.91
152179148912,0.37459564,-0.7867004,10.3202305,0.0125900265,-0.0672638,-0.12566833,77.64306538,12.8793906,4.91
152179148933,-0.9493545,-0.087278746,9.834966,-4.8065186E-4,-0.108924866,-0.017794799,77.64306538,12.8793906,4.91
152179148955,0.1312439,-0.9177109,9.24202,0.017477417,-0.017668152,0.108514406,77.64306538,12.8793906,4.91
152179148976,0.082789615,-0.60795593,10.468104,-0.01795044,0.04609375,0.076509096,77.64306538,12.8793906,4.91
152179148997,-0.043551635,-0.16492462,9.812952,0.011978149,0.0068893433,-0.02292633,77.64301469,12.87941795,5.37
152179149019,0.06352844,-0.63044894,9.347669,-0.0037780763,-0.0380661,-0.014007568,77.64301469,12.87941795,5.37
152179149040,0.10959015,-0.61848605,9.894663,-0.007444763,0.0011474609,0.06453095,77.64301469,12.87941795,5.37
152179149061,0.23868409,-0.44919434,9.795003,0.009898377,0.038760375,0.04120636,77.64301469,12.87941795,5.37
152179149082,-0.26476592,-0.41820374,10.343799,0.0069702147,-8.102417E-4,-0.030377198,77.64295919,12.87944008,5.44
152179149103,-0.44135588,-0.33577117,10.145075,-0.0050003054,-0.034887694,0.0016281127,77.64295919,12.87944008,5.44
152179149125,-0.7140198,-0.3412735,9.711972,0.005380249,0.03754425,0.081150815,77.64295919,12.87944008,5.44
152179149146,0.42161256,-0.32129365,9.991694,-0.024429321,0.057211302,-0.0016723633,77.64295919,12.87944008,5.44
152179149167,-0.11186524,-0.21242371,9.878992,0.0018417358,-0.02401886,-0.07924805,77.64295919,12.87944008,5.44
152179149188,-0.076452635,-0.4902298,9.66328,0.02505188,-0.06311035,-0.02256012,77.64291716,12.87947317,5.63
152179149210,-0.4494919,-0.5182266,9.642581,0.0013519287,-0.044664003,0.051589966,77.64291716,12.87947317,5.63
152179149231,-0.19477539,-0.34055787,9.872533,-0.009034729,0.03339081,0.10485077,77.64291716,12.87947317,5.63
152179149252,0.15828247,-0.42670137,9.594246,-0.0030410767,0.07590637,0.034855653,77.64291716,12.87947317,5.63
152179149273,-0.011486816,-0.34235078,9.774069,-0.01648407,0.07456207,-0.014863586,77.64291716,12.87947317,5.63
152179149295,0.28821412,-0.43890533,9.617818,-0.0023162842,-0.003741455,-0.093537904,77.64287618,12.87950235,5.92
152179149316,-0.026322937,-0.4031311,9.728007,0.005993652,-0.060426332,-0.057621766,77.64287618,12.87950235,5.92
152179149337,-0.50380707,-0.33996123,10.161825,0.0051376345,-0.054563902,0.010545349,77.64287618,12.87950235,5.92
152179149358,-0.23054962,-0.4750351,10.005455,-4.8217774E-4,0.035588074,0.08285828,77.64287618,12.87950235,5.92
152179149380,-0.117967226,-0.46857452,9.808644,0.0031845092,0.046218872,-0.004722595,77.64282864,12.87953457,6.02
152179149401,-0.13603362,-0.40325013,9.856619,-2.3803712E-4,0.045973204,-0.027449036,77.64282864,12.87953457,6.02
152179149422,0.17036743,-0.5358108,9.675005,-0.008424377,0.010061646,-0.054200746,77.64282864,12.87953457,6.02
152179149443,-0.08614197,-0.59647065,9.727646,-0.007077026,-0.020965576,-0.056278992,77.64282864,12.87953457,6.02
152179149465,0.19082642,-0.49836427,10.077118,0.007095337,-0.036358643,-0.040882874,77.64282864,12.87953457,6.02
152179149486,-0.022253418,-0.4487137,10.278116,0.018087769,-0.035009764,-0.018527221,77.64277991,12.87955708,6.22
152179149507,0.4283127,-0.97333986,10.136461,-0.06827545,-0.047721863,-0.030133057,77.64277991,12.87955708,6.22
152179149528,-0.04738159,-0.7269989,9.462163,0.04374237,-0.07606049,-3.2653808E-4,77.64277991,12.87955708,6.22
152179149550,-0.5112274,-0.28217316,10.1918545,0.014422608,-0.049790956,0.0723526,77.64277991,12.87955708,6.22
152179149571,-0.34899443,-0.33589172,9.725733,-0.024543762,0.06197815,0.119262695,77.64277991,12.87955708,6.22
152179149592,0.16378632,-0.86721957,9.2502775,-0.0048812865,0.15482788,0.062461853,77.64272861,12.87958897,6.28
152179149613,0.5369476,-0.762413,8.953211,-0.01966095,0.10009308,-0.08828888,77.64272861,12.87958897,6.28
152179149635,-0.06831665,-0.7369278,9.308421,0.0145431515,-4.4403077E-4,-0.112234496,77.64272861,12.87958897,6.28
152179149656,-0.06759949,-0.6990036,9.112215,0.03653717,-0.07349396,-0.09317474,77.64272861,12.87958897,6.28
152179149677,-0.2201416,-0.22462615,10.171277,0.019554138,-0.06958771,-0.007774353,77.64272861,12.87958897,6.28
152179149699,-0.22983246,-0.5340179,10.105352,-0.02711029,-0.025724793,0.03400116,77.64267194,12.87961982,6.54
152179149720,0.034695435,-0.8989258,10.0563,-0.006956482,0.034002684,0.03619995,77.64267194,12.87961982,6.54
152179149741,-0.14524841,-0.75188446,9.240229,-0.007936096,0.067230225,0.0028533936,77.64267194,12.87961982,6.54
152179149762,-0.09499512,-0.612384,9.774666,-0.004637146,0.08677826,-0.01376648,77.64267194,12.87961982,6.54
152179149783,-0.11485596,-0.5827087,9.78747,0.0046508787,0.09252014,-0.06422119,77.64261714,12.87965848,6.79
152179149805,0.29826355,-0.6395416,9.667944,0.0017196655,0.04756012,-0.12151337,77.64261714,12.87965848,6.79
152179149826,-0.0053848266,-0.5586624,9.863199,0.041545104,-0.027923584,-0.13397828,77.64261714,12.87965848,6.79
152179149847,-0.24730071,-0.5335388,9.921587,-0.0029251098,-0.044419862,-0.07595062,77.64261714,12.87965848,6.79
152179149869,-0.6708282,-0.59730834,9.907466,-0.00463562,0.029611206,-0.015475464,77.64261714,12.87965848,6.79
152179149890,-0.031585693,-0.6034088,10.092674,0.010879517,0.08591919,-0.051513672,77.64256153,12.87969645,6.84
152179149911,-0.22265014,-0.6688507,9.41969,0.023220826,0.07736969,-0.11259918,77.64256153,12.87969645,6.84
152179149932,-0.16044159,-0.30119476,10.159312,0.0106369015,0.069796756,-0.12176208,77.64256153,12.87969645,6.84
152179149954,-0.2732605,-0.8150528,9.634685,-0.015507507,0.08274384,-0.128479,77.64256153,12.87969645,6.84
152179149975,0.056469727,-0.63882446,9.917398,0.038493346,0.104003906,-0.14802703,77.64256153,12.87969645,6.84
152179149996,0.17539215,-0.9853058,10.345714,0.028837586,0.050741576,-0.23184204,77.64251102,12.87973398,6.98
152179150018,-0.06544495,-1.2132218,10.099731,0.029693604,-0.046862792,-0.26739502,77.64251102,12.87973398,6.98
152179150039,-0.48311156,-0.77964175,10.107028,0.048143007,-0.12505035,-0.22060242,77.64251102,12.87973398,6.98
152179150060,-0.4922058,-1.1773285,9.210199,0.0040374757,-0.08314667,-0.10539093,77.64251102,12.87973398,6.98
152179150081,-0.9586838,-1.2114258,10.524338,0.015522766,0.031439207,-0.042347718,77.6424694,12.87977706,6.92
152179150102,0.73949736,-1.9169495,8.47608,0.018089294,0.08665619,-0.1326355,77.6424694,12.87977706,6.92
152179150124,-0.10133972,-0.17341919,10.311018,0.05559387,-0.020599365,-0.2811981,77.6424694,12.87977706,6.92
152179150145,-1.1105118,-0.016333008,10.8113575,-0.03309784,-0.11381073,-0.18346253,77.6424694,12.87977706,6.92
152179150166,-0.5864822,0.26351014,9.194882,0.08833923,-0.11112366,-0.0804718,77.6424694,12.87977706,6.92
152179150188,-0.048574828,-0.47898406,10.989383,0.05583954,-0.06909637,-0.123347476,77.64243714,12.87982723,6.56
152179150209,-0.38608247,-0.29664916,9.119153,-0.053982545,-0.0176651,0.0015045166,77.64243714,12.87982723,6.56
152179150230,-0.12179413,-0.1892151,9.330797,0.0700119,0.1014389,-0.008628845,77.64243714,12.87982723,6.56
152179150251,0.05755005,-0.28444824,10.132751,-0.023200989,0.121105954,-0.10209656,77.64243714,12.87982723,6.56
152179150272,-0.1031311,0.062394716,9.654307,0.05522766,0.04634247,-0.15450135,77.64243714,12.87982723,6.56
152179150294,-0.04462738,-0.21445617,10.150696,-0.0313858,0.02875061,-0.1402115,77.64241573,12.87988168,6.7
152179150315,-0.16031799,-0.30574188,9.331871,0.025543213,0.01434021,-0.16232911,77.64241573,12.87988168,6.7
152179150336,0.007055664,-0.1397995,10.221286,-0.0026779175,-0.052601624,-0.17417756,77.64241573,12.87988168,6.7
152179150358,-0.24550323,0.06036072,9.558713,0.07135315,-0.14289093,-0.17295074,77.64241573,12.87988168,6.7
152179150379,-0.7716888,-0.3489334,9.852793,-0.006341553,-0.14582214,-0.065071106,77.64239129,12.87994416,7.25
152179150400,-0.5205582,-0.115270995,9.517316,-0.014407349,-0.077279665,0.005177307,77.64239129,12.87994416,7.25
152179150422,0.03816681,0.02470703,9.949579,0.034091186,-0.049061585,-0.0381958,77.64239129,12.87994416,7.25
152179150443,-0.26177827,-0.28038177,10.080348,-0.03614807,-0.083026126,-0.03624115,77.64239129,12.87994416,7.25
152179150464,-0.19202575,-0.13238373,9.812831,0.023341369,-0.14069061,-0.02976532,77.64239129,12.87994416,7.25
152179150485,-0.52989197,-0.53150636,10.072095,0.012467956,-0.12615052,0.06918182,77.64237377,12.88000749,7.58
152179150507,-0.2702713,-0.68093413,9.740328,-0.020272827,-0.066043094,0.10179596,77.64237377,12.88000749,7.58
152179150528,-0.3713684,-0.9589844,9.473887,0.028596496,0.03766632,0.13136292,77.64237377,12.88000749,7.58
152179150549,-0.09595184,-1.0034866,9.644734,-0.008786011,0.08861084,0.08078156,77.64237377,12.88000749,7.58
152179150570,-0.052882385,-1.0432113,9.745115,-0.015019226,0.10058136,0.06197357,77.64237377,12.88000749,7.58
152179150592,0.5931778,-0.9287125,9.980807,0.004040527,0.047441103,-0.031845093,77.64235593,12.88007548,7.65
152179150613,0.19381866,-1.1616532,9.513728,9.155274E-6,-0.06946411,-0.0612854,77.64235593,12.88007548,7.65
152179150634,-0.21954498,-0.91902316,9.5012865,-0.028451538,-0.10452728,0.038642883,77.64235593,12.88007548,7.65
152179150655,-0.31884307,-1.25103,9.313688,0.03873291,-0.060787965,0.0835907,77.64235593,12.88007548,7.65
152179150677,-0.07621308,-0.8542954,9.271097,-0.03847046,0.0077438354,0.13661346,77.64235593,12.88007548,7.65
152179150698,-0.20769806,-0.7064209,9.989304,0.002331543,0.09264068,0.12183075,77.64233349,12.88014076,7.25
152179150719,-0.13280182,-0.7096527,10.336978,0.048020937,0.14163056,0.09116821,77.64233349,12.88014076,7.25
152179150740,-0.016630555,-0.7530807,9.647486,0.014672851,0.15421753,0.023368835,77.64233349,12.88014076,7.25
152179150761,-0.112226866,-0.124607846,9.725372,-0.096372984,0.107547,-0.05090332,77.64233349,12.88014076,7.25
152179150783,0.02512207,-0.4161728,9.809123,0.09603119,0.058924865,-0.08535614,77.6423051,12.88020283,7.01
152179150804,0.09080658,-0.7053436,10.145674,0.021266174,0.009088134,-0.12188415,77.6423051,12.88020283,7.01
152179150825,-0.014955139,-0.44667968,9.574148,0.01845398,-0.10929565,-0.12640838,77.6423051,12.88020283,7.01
152179150847,-0.61436003,-0.22139588,10.3103,0.009048462,-0.12358856,-0.04711609,77.6423051,12.88020283,7.01
152179150868,-0.21535492,-0.49214476,9.994568,-0.0023147583,-0.1254181,0.002607727,77.6423051,12.88020283,7.01
152179150889,-0.46815795,-0.6156128,10.0425415,0.019065857,-0.06934204,0.06368103,77.64227632,12.88026685,7.06
152179150910,-0.29515687,-0.3788452,10.266989,-0.038957216,0.0256958,0.09984131,77.64227632,12.88026685,7.06
152179150931,0.17539367,-0.48125762,9.135183,-0.028334046,0.050737,0.034976196,77.64227632,12.88026685,7.06
152179150953,0.0029907227,-0.35658875,10.048406,-0.008540344,0.06882019,0.012625122,77.64227632,12.88026685,7.06
152179150974,0.06053772,-0.27056733,10.73658,0.036657713,0.0074951174,-0.053222656,77.64227632,12.88026685,7.06
152179150995,-0.14165802,-1.3432693,9.198713,0.11753998,-0.068244934,-0.041496277,77.64225521,12.88033212,7.2
152179151017,-1.0764145,-0.4548172,8.520706,-0.16600952,0.041700743,0.1369812,77.64225521,12.88033212,7.2
152179151038,0.14021912,-0.6637085,10.174505,0.08723297,0.26221925,0.11535797,77.64225521,12.88033212,7.2
152179151059,0.3749527,-1.165242,10.145793,-0.05618286,0.2799301,-0.10734558,77.64225521,12.88033212,7.2
152179151080,0.81977844,-0.43555146,10.364497,0.07722168,-0.018647766,-0.3371521,77.6422356,12.88039208,7.24
152179151102,0.017822266,-0.23945923,11.234645,0.099572755,-0.40140837,-0.35951233,77.6422356,12.88039208,7.24
152179151123,-1.7105118,-0.47347718,8.826509,0.012225342,-0.46945494,0.047923278,77.6422356,12.88039208,7.24
152179151144,-0.74105835,-0.79064786,8.5914135,-0.0016983033,-0.1527832,0.29311982,77.6422356,12.88039208,7.24
152179151165,-0.33284456,0.33110657,11.08581,0.043992616,0.09044342,0.27100372,77.6422356,12.88039208,7.24
152179151187,0.7866394,-1.5064605,9.2057705,0.0745285,0.1385788,0.09312286,77.64221686,12.88044996,6.76
152179151208,-0.3187256,-0.0670578,10.075205,-0.049708556,0.04402008,0.050611876,77.64221686,12.88044996,6.76
152179151229,0.10982971,-0.58905333,9.084455,-0.030046081,0.03631897,0.04230957,77.64221686,12.88044996,6.76
152179151250,0.029069519,-0.32033998,10.091234,-0.014407349,0.07272796,0.08383484,77.64221686,12.88044996,6.76
152179151272,0.1672577,-0.46342927,9.975662,-0.0018295288,0.0631958,0.0060287477,77.64221686,12.88044996,6.76
152179151293,-0.2136795,-0.4101898,9.550934,0.0029388429,0.002859497,-0.0076522827,77.64219,12.88051114,6.99
152179151314,-0.38094026,-0.61022794,9.930918,0.01576538,0.016535949,0.047309875,77.64219,12.88051114,6.99
152179151335,-0.06616211,-0.88540345,9.512652,-0.033099364,0.05232544,0.024229432,77.64219,12.88051114,6.99
152179151357,0.3911026,-0.6499527,10.0158615,-0.006712341,0.011654663,-0.03441162,77.64219,12.88051114,6.99
152179151378,0.06077423,-0.61968386,9.840347,0.03482666,-0.07129669,-0.058721922,77.64219,12.88051114,6.99
152179151399,-0.28175506,-0.32129365,9.841906,-0.04397125,-0.12248383,-0.0024017333,77.6421574,12.88057565,7.24
152179151421,0.020697022,-1.1481369,9.034803,0.04325409,-0.12395477,0.04633789,77.6421574,12.88057565,7.24
152179151442,0.041394044,-1.3820328,10.111575,0.030189514,-0.13592681,0.07076569,77.6421574,12.88057565,7.24
152179151463,0.0240448,-1.1458603,8.123617,-0.05496216,-0.10452576,0.1609253,77.6421574,12.88057565,7.24
152179151484,-0.4383667,-1.115834,10.073053,0.033480834,0.0029754639,0.19305725,77.64213356,12.88063007,7.01
152179151505,0.7045654,-0.8223511,9.009084,-0.011473084,0.024349976,0.16251221,77.64213356,12.88063007,7.01
152179151527,-0.9866821,-0.7936371,12.150261,0.08381347,0.08860626,0.18975373,77.64213356,12.88063007,7.01
152179151548,-0.17192535,-1.0536178,10.311134,-0.04115448,0.18598023,0.17814788,77.64213356,12.88063007,7.01
152179151570,0.46360627,-0.6242279,10.149142,-0.020631408,0.19832,0.09349213,77.64213356,12.88063007,7.01
152179151591,0.14057922,-1.2445679,10.001508,0.029325867,0.12868042,-0.06409912,77.64210499,12.88067762,6.65
152179151612,-0.10361023,-1.271846,10.50986,-0.06790924,0.046585083,-0.04784851,77.64210499,12.88067762,6.65
152179151633,-0.56841886,-0.25752717,9.538017,0.0083145145,0.09166412,0.022764588,77.64210499,12.88067762,6.65
152179151654,0.21870422,-1.3911285,10.153691,0.015649414,0.14028779,-0.054322816,77.64210499,12.88067762,6.65
152179151676,0.23736724,-1.4803756,8.910617,0.018333435,0.051596068,-0.16635895,77.64210499,12.88067762,6.65
152179151697,-0.1911911,-0.09517364,10.582243,0.024319459,-0.07288513,-0.18235779,77.64207418,12.88072024,6.26
152179151718,-0.15445861,-1.647995,6.5021224,0.32694244,-0.09255524,-0.11357574,77.64207418,12.88072024,6.26
152179151739,0.3461197,0.5611771,13.85802,-0.677182,-0.023655701,-0.046022035,77.64207418,12.88072024,6.26
152179151761,0.058384705,-1.1553131,7.9296813,0.53047943,0.0033355714,-0.068251036,77.64207418,12.88072024,6.26
152179151782,-0.009213257,-0.28145447,10.175943,-0.20656891,-0.21056823,-0.1254303,77.64204443,12.88076635,5.88
152179151803,-1.226683,-0.41784668,9.669621,0.06402588,-0.10184021,0.10387421,77.64204443,12.88076635,5.88
152179151824,-0.57858735,-0.44273224,11.362543,-0.05545044,0.115486145,0.1566513,77.64204443,12.88076635,5.88
152179151846,-0.085783385,0.3138794,9.594129,-0.031993102,0.18329163,0.065396115,77.64204443,12.88076635,5.88
152179151867,0.25291747,-0.28540343,10.758235,0.084179685,0.1438324,-0.13153687,77.64204443,12.88076635,5.88
152179151888,-0.48526612,-0.12615967,9.953769,0.020288086,-0.0032470704,-0.13825837,77.6420219,12.88081209,6.06
152179151909,-0.069633484,-0.60687864,9.869542,0.03653717,-0.05736847,-0.1296997,77.6420219,12.88081209,6.06
152179151931,-0.121435545,-0.58917236,9.446012,0.015522766,-0.16658631,-0.12750396,77.6420219,12.88081209,6.06
152179151952,-0.45248413,-0.64456785,9.450081,0.013444519,-0.17465058,-0.02109375,77.6420219,12.88081209,6.06
152179151973,-0.49148864,-0.3352951,9.598555,0.0011077881,-0.107214354,0.10362701,77.6420219,12.88081209,6.06
152179151994,-0.5081161,0.04061737,10.330042,0.0014724731,0.020687867,0.12940674,77.64200105,12.88085967,6.04
152179152016,0.18843079,-0.8748749,9.37602,-0.040057372,0.07419129,0.07491913,77.64200105,12.88085967,6.04
152179152037,0.011125183,-0.69158477,10.13694,-0.042744447,0.05611267,-0.010954285,77.64200105,12.88085967,6.04
152179152059,0.49399567,-0.81122744,9.196681,0.019432068,-0.04417572,-0.055545043,77.64200105,12.88085967,6.04
152179152080,-0.64355165,-0.87798464,10.864476,-0.0048797606,-0.086688235,-0.002645874,77.64197204,12.88090713,6.27
152179152101,0.29610902,-1.9529617,8.283098,0.0067276,-0.061158754,0.08628082,77.64197204,12.88090713,6.27
152179152122,0.28713685,-1.7383239,8.162621,-0.006954956,0.01934967,0.14247742,77.64197204,12.88090713,6.27
152179152143,0.37076417,-1.7194245,8.589022,-0.0031677247,0.06551971,0.08737793,77.64197204,12.88090713,6.27
152179152165,0.24825439,-1.023468,8.751017,0.011857605,0.08690033,0.042791747,77.64197204,12.88090713,6.27
152179152186,0.15182343,-1.3269974,10.088603,-0.031388856,0.06454315,0.01042633,77.64194475,12.88095244,6.18
152179152207,0.3342758,-1.1804413,9.271574,-0.01660614,0.038639832,-0.029890442,77.64194475,12.88095244,6.18
152179152228,-0.09284516,-1.2099899,10.306231,-0.002069092,-0.005935669,-0.053222656,77.64194475,12.88095244,6.18
152179152250,-0.22038117,-0.6365509,9.495901,0.04374542,0.009938049,0.018608093,77.64194475,12.88095244,6.18
152179152271,-0.5071594,-0.7189819,10.247846,-0.011712646,0.075660706,0.02007904,77.64194475,12.88095244,6.18
152179152292,0.27744752,-0.95048827,9.678714,-0.016970824,0.06967316,-0.08401184,77.64191472,12.88099751,5.84
152179152313,0.85794526,-0.6824921,9.898615,0.068058774,-0.053338625,-0.21131286,77.64191472,12.88099751,5.84
152179152335,-0.7536209,-0.9736999,10.539653,-0.04470215,-0.1684204,-0.07777862,77.64191472,12.88099751,5.84
152179152356,-1.1118271,-1.0496719,10.373232,0.06585846,-0.13677979,0.06466522,77.64191472,12.88099751,5.84
152179152377,-1.0853882,-1.3723419,10.2229595,-0.0049987794,0.045851134,0.24167939,77.64191472,12.88099751,5.84
152179152398,0.45786437,-0.86279297,9.446849,-0.039811708,0.18707886,0.14858551,77.64189113,12.88104058,5.59
152179152420,0.46013793,-1.1108093,9.995285,0.014302063,0.1140213,-0.12029572,77.64189113,12.88104058,5.59
152179152441,-0.033862304,-3.3307495,11.096939,-0.34352875,-0.009727478,-0.06507721,77.64189113,12.88104058,5.59
152179152462,0.908078,-1.1788819,11.339931,0.54269564,-0.00740509,-0.3428955,77.64189113,12.88104058,5.59
152179152483,-0.79848635,-0.7675583,8.704715,-0.29355773,-0.13959351,0.047799684,77.64186387,12.88108769,5.26
152179152505,-0.16893463,0.6397827,10.155484,0.09603424,-0.099882506,0.014945984,77.64186387,12.88108769,5.26
152179152526,0.12250824,-0.7323822,11.971039,-1.0986328E-4,-0.21142884,-0.09793854,77.64186387,12.88108769,5.26
152179152547,-0.20566711,-0.5583054,9.438954,-0.025517274,-0.2919403,0.10301819,77.64186387,12.88108769,5.26
152179152568,-0.9005402,-1.699681,10.169121,0.07355194,-0.21656036,0.25157776,77.64186387,12.88108769,5.26
152179152590,-0.41994324,-1.220877,9.993129,0.027008057,0.009088134,0.52647096,77.64184272,12.88113039,5.11
152179152611,0.52953035,-0.9296692,9.83772,0.07416229,0.23643646,0.44351044,77.64184272,12.88113039,5.11
152179152632,0.6959518,-1.0594803,10.287207,-0.01917572,0.19404602,0.106436156,77.64184272,12.88113039,5.11
152179152653,-0.033140562,-1.23069,9.787827,0.02028656,0.13332215,0.07015991,77.64184272,12.88113039,5.11
152179152675,-0.37292022,-1.0179641,9.235562,0.0015991211,0.15164948,0.107536316,77.64184272,12.88113039,5.11
152179152696,-0.11641083,-1.1362915,9.231016,-0.086112976,0.24841614,0.100941464,77.64181493,12.88115612,4.97
152179152717,0.8002777,-0.9727417,9.838674,-0.008296204,0.2223877,-0.11797638,77.64181493,12.88115612,4.97
152179152739,0.32984772,-1.0883163,10.65654,0.12718506,0.1608139,-0.23452759,77.64181493,12.88115612,4.97
152179152760,0.011125183,-0.79495543,10.267586,0.511055,0.013479615,-0.3143097,77.64181493,12.88115612,4.97
152179152781,-0.024887085,-5.647841,8.994247,-0.7881149,-0.06885376,-0.2961029,77.64178417,12.88118742,4.7
152179152802,-0.5070389,2.0924637,10.683101,0.077833556,-0.11247406,-0.24344635,77.64178417,12.88118742,4.7
152179152823,0.0014328003,-1.5315872,11.8239975,0.5988968,-0.083883666,-0.20423278,77.64178417,12.88118742,4.7
152179152845,-2.009253,0.16157532,10.215543,-0.2086502,-0.048693847,0.07394409,77.64178417,12.88118742,4.7
152179152866,0.88498384,-0.7352554,10.492033,0.10263519,-0.06421204,-0.07168122,77.64178417,12.88118742,4.7
152179152887,-0.29001158,-0.11168365,11.314207,-0.012446594,-0.19432525,-0.24992219,77.64175779,12.88123068,4.77
152179152909,-0.1646286,-0.097566225,7.838394,0.042521667,-0.24270324,0.04389038,77.64175779,12.88123068,4.77
152179152930,-1.133722,-0.13381958,10.527687,0.034585573,-0.030862426,0.2559784,77.64175779,12.88123068,4.77
152179152951,0.28223115,-0.32943267,9.563141,-0.11641236,0.022521973,0.17949371,77.64175779,12.88123068,4.77
152179152972,-0.76618195,-0.86267245,10.890561,0.060847472,-0.029518127,0.054273985,77.64175779,12.88123068,4.77
152179152994,-0.56518555,-1.0916672,10.456141,-0.04458008,-0.007896423,0.20075074,77.64172947,12.88127094,4.86
152179153015,-0.2595047,-1.6347138,8.128161,-0.049343873,0.10766907,0.22531128,77.64172947,12.88127094,4.86
152179153036,-0.6314697,-0.49776763,11.263479,0.028596496,0.15262909,0.08591767,77.64172947,12.88127094,4.86
152179153057,0.24777374,-1.25737,8.875203,-0.066567995,0.13185883,0.028627014,77.64172947,12.88127094,4.86
152179153079,0.031825256,-0.82618254,10.312932,-0.0078063966,0.07700348,-0.059091188,77.64170021,12.88130482,5.02
152179153100,-0.58121794,-1.3061813,10.619093,0.15235595,0.1060791,-0.04296112,77.64170021,12.88130482,5.02
152179153121,0.30305177,-1.8914642,9.242622,-0.053865053,0.022769164,-0.14619294,77.64170021,12.88130482,5.02
152179153142,-0.05228729,-2.2355561,8.849002,-0.113357544,-0.10770416,-0.1966507,77.64170021,12.88130482,5.02
152179153164,-0.31047058,-1.9327424,8.6111555,0.068667606,-0.12871704,-0.100379944,77.64170021,12.88130482,5.02
152179153185,-0.25746766,-0.6827286,12.848129,0.23092346,-0.0030105591,0.0170166,77.64168041,12.88133307,4.7
152179153206,-0.5039307,-2.1869812,10.186114,0.13452148,0.018489074,0.028990174,77.64168041,12.88133307,4.7
152179153227,-0.3517441,0.44093782,8.635084,-0.21610108,-0.032081604,0.01065979,77.64168041,12.88133307,4.7
152179153249,-0.93751067,-0.5274399,8.33933,0.06793366,0.037054442,0.0015014649,77.64168041,12.88133307,4.7
152179153270,-0.8903702,-1.5254853,11.707466,-0.0978363,0.08188782,0.043037415,77.64168041,12.88133307,4.7
152179153291,0.10588379,-0.96101683,9.049281,-0.009643555,0.11780701,-0.012792969,77.64165365,12.88136714,4.06
152179153312,0.4291504,-1.0324417,10.368921,-0.008171082,0.05684509,-0.19482116,77.64165365,12.88136714,4.06
152179153334,-0.14356995,-0.864827,9.843458,0.018577576,-0.060910035,-0.21363525,77.64165365,12.88136714,4.06
152179153355,-0.4847885,-1.027539,9.789621,0.07477722,-0.165979,-0.19090882,77.64165365,12.88136714,4.06
152179153376,-0.96143645,-0.74255216,9.645334,-0.02454834,-0.14593963,0.028619384,77.64165365,12.88136714,4.06
152179153397,-0.4888565,-0.8330002,10.020886,-0.007443237,-0.04258728,0.16752473,77.64163408,12.88139891,4.18
152179153419,0.07860108,-1.0741943,9.980211,0.008801269,-0.07544861,-0.024029542,77.64163408,12.88139891,4.18
152179153440,-0.34325105,-1.0155716,9.357958,-0.007447815,-0.11210327,0.05402832,77.64163408,12.88139891,4.18
152179153461,-0.70456696,-1.008873,9.316917,0.0037948608,-0.032080077,0.21345825,77.64163408,12.88139891,4.18
152179153482,-0.7144989,-0.6686142,10.603778,-0.01782837,0.101679996,0.28065795,77.64161559,12.8814349,4.26
152179153504,0.2751724,-0.719104,9.721065,-0.016603088,0.211763,0.20099945,77.64161559,12.8814349,4.26
152179153517,1.054155,-0.84065706,9.709581,-0.0031692504,0.14187774,-0.10172882,77.64161559,12.8814349,4.26
152179153538,0.9327194,-0.94414824,10.205971,0.03519287,-0.122241214,-0.40080413,77.64161559,12.8814349,4.26
152179153559,-1.1401825,-0.7237686,9.41969,0.04948578,-0.31136322,-0.23135376,77.64161559,12.8814349,4.26
152179153581,-1.9056442,-1.2413375,10.0208845,0.0017181396,-0.052607726,0.4182251,77.6415945,12.88146717,3.9
152179153602,0.1217926,-0.9332611,10.111216,-0.02711029,0.21420136,0.38193816,77.6415945,12.88146717,3.9
152179153623,0.54496306,-0.8274948,10.541685,0.04118042,0.2333847,0.037294008,77.6415945,12.88146717,3.9
152179153644,-0.0265625,-0.49298248,7.7657714,0.17544708,0.16532898,-0.16452332,77.6415945,12.88146717,3.9
152179153666,0.095472716,-1.2538986,9.345754,-0.27156526,0.2230011,-0.16733246,77.6415945,12.88146717,3.9
152179153687,0.9806946,-1.0777878,10.407568,-0.11898041,0.16129914,-0.3692871,77.64157597,12.88149542,3.95
152179153709,-0.053599548,0.6306885,9.8621235,0.4972519,-0.122364804,-0.49915466,77.64157597,12.88149542,3.95
152179153729,-1.1886368,-0.23551178,12.846332,0.061587524,-0.21606903,-0.3416748,77.64157597,12.88149542,3.95
152179153751,-1.9271835,0.9161514,11.199348,-0.03493042,-0.23182984,-0.08144684,77.64157597,12.88149542,3.95
152179153772,0.022732545,-0.052102663,9.924217,0.03934784,-0.16854553,0.010061646,77.64157597,12.88149542,3.95
152179153793,-0.50596315,0.2706894,10.518117,-0.11457062,-0.21423951,0.036323547,77.64156551,12.88153326,3.89
152179153814,-0.4486557,-0.021594238,9.242978,0.019551087,-0.1609726,0.1664215,77.64156551,12.88153326,3.89
152179153836,-0.44255218,0.04097595,10.078554,0.04789581,-0.086445615,0.25683442,77.64156551,12.88153326,3.89
152179153857,-0.47557527,-0.33756867,9.464678,0.039344788,0.01738739,0.31180876,77.64156551,12.88153326,3.89
152179153878,-0.11701355,-0.39858246,8.99724,0.0350708,0.14138794,0.29152983,77.64154522,12.88156941,4.13
152179153899,-0.06496582,-0.21529236,9.73315,-0.026254272,0.11903076,0.10765991,77.64154522,12.88156941,4.13
152179153921,-0.30329284,-0.067417905,9.992055,0.017597962,0.10033722,0.10411529,77.64154522,12.88156941,4.13
152179153942,-0.058509827,-0.057008363,9.705513,0.03568115,0.08555756,0.05256958,77.64154522,12.88156941,4.13
152179153963,0.15266113,-0.40444642,9.843221,-0.05569458,0.09434967,0.044989012,77.64154522,12.88156941,4.13
152179153984,-0.14931183,-0.4092331,9.307828,0.005873108,0.09288482,0.010549927,77.64152056,12.88161155,5.18
152179154006,0.09008789,-0.14506531,10.242584,-0.0070755007,0.04071808,-0.08376618,77.64152056,12.88161155,5.18
152179154027,-0.31752777,-0.6833313,9.305315,0.014913941,-0.060180664,-0.074847415,77.64152056,12.88161155,5.18
152179154049,-0.7384262,-0.66059875,10.09997,-0.11604462,0.006517029,0.06465912,77.64152056,12.88161155,5.18
152179154069,-0.28785706,-0.7065399,9.309619,0.09224548,0.13930969,0.086035155,77.64152056,12.88161155,5.18
152179154091,0.2602188,-1.076709,10.232773,-0.03138275,0.17559357,-0.08230285,77.64148867,12.88165757,5.72
152179154112,0.26356506,-0.4886734,8.897453,-0.009033203,0.021791076,-0.21388093,77.64148867,12.88165757,5.72
152179154133,0.078962706,-0.8806183,9.020686,0.05193176,-0.022554016,-0.17306824,77.64148867,12.88165757,5.72
152179154155,-0.45619202,-0.9714233,9.863561,-0.04519043,-0.078625485,-0.14472961,77.64148867,12.88165757,5.72
152179154176,0.0634079,-0.3311081,10.051514,0.080149844,-0.12138672,-0.13324738,77.64146055,12.88170659,5.84
152179154197,-0.5456848,-0.8200806,9.846332,0.008927917,-0.17465362,-0.06324158,77.64146055,12.88170659,5.84
152179154218,-0.094996646,-0.51511383,9.383797,-0.04213562,-0.19371644,0.017999267,77.64146055,12.88170659,5.84
152179154240,-1.0511688,-0.9366104,11.667389,0.025540162,-0.114787295,0.10912476,77.64146055,12.88170659,5.84
152179154261,-0.52247316,-0.9874573,10.30372,0.014056397,-0.004840088,0.18719177,77.64146055,12.88170659,5.84
152179154282,-0.33200532,-1.0395019,10.388425,0.010513306,0.117686465,0.19745484,77.64144174,12.88175367,5.81
152179154304,0.11425476,-1.3191025,10.848686,-0.010253906,0.18817596,0.082984924,77.64144174,12.88175367,5.81
152179154325,0.13746795,-0.07387543,10.247366,-0.015020752,0.1675293,-0.035993956,77.64144174,12.88175367,5.81
152179154346,0.8053009,-1.4221146,9.096059,-0.029792786,0.05720978,-0.1558487,77.64144174,12.88175367,5.81
152179154367,0.33511353,-1.1510086,8.57562,0.067201234,-0.09548645,-0.18810578,77.64144174,12.88175367,5.81
152179154389,-0.37388,-0.9856613,8.72697,0.025543213,-0.1757553,-0.078511044,77.64141649,12.88179891,5.64
152179154410,-0.72897494,-1.3549942,10.333628,-0.025398254,-0.12761536,0.08738251,77.64141649,12.88179891,5.64
152179154431,-0.68135834,-0.49130553,11.2630005,0.012223816,-0.017053222,0.14418793,77.64141649,12.88179891,5.64
152179154452,0.28570098,-1.2791427,9.014826,-0.005123901,-0.0061782836,0.05818329,77.64141649,12.88179891,5.64
152179154474,-0.16463165,-1.092981,10.049121,-0.01611786,-0.017053222,0.04255066,77.64139423,12.88183747,5.5
152179154495,0.16354981,-0.9707092,8.965414,-0.0063522337,-0.015711974,0.07088776,77.64139423,12.88183747,5.5
152179154516,-0.4195816,-0.7987793,10.316877,0.010514831,-0.032571413,0.071862794,77.64139423,12.88183747,5.5
152179154537,-0.35581666,-1.3236465,9.754209,4.974365E-4,-0.02267151,0.112788394,77.64139423,12.88183747,5.5
152179154559,0.33989868,-0.8782257,8.888008,-0.016360473,0.009938049,0.12537232,77.64139423,12.88183747,5.5
152179154580,0.31357878,-0.9786056,10.192213,0.012715149,0.013969421,0.089215085,77.64136541,12.88187843,5.35
152179154601,-0.2020752,-1.0083939,9.604057,-0.026010131,0.012382507,0.0840805,77.64136541,12.88187843,5.35
152179154622,-0.21930543,-0.94056094,9.774426,0.016134644,0.043284606,0.13319397,77.64136541,12.88187843,5.35
152179154644,0.19740447,-1.1523254,10.314486,7.6293945E-6,0.11414337,0.09983826,77.64136541,12.88187843,5.35
152179154665,0.09164276,-1.3904083,9.193568,-0.012701416,0.08567657,-0.010464477,77.64136541,12.88187843,5.35
152179154686,-0.1915451,-1.4206803,10.204538,-0.0629013,0.07419281,-0.023295593,77.64133517,12.88191939,5.16
152179154707,-0.33009186,-1.3581054,9.831972,0.025662232,0.10424805,-0.005332947,77.64133517,12.88191939,5.16
152179154729,0.32219392,-1.5332626,9.998876,-0.0087890625,0.09374084,-0.08901672,77.64133517,12.88191939,5.16
152179154750,0.5410156,-1.2188431,9.31357,0.051194765,0.0037094117,-0.22084808,77.64133517,12.88191939,5.16
152179154771,-0.12789917,-1.0981247,10.858136,0.030549621,-0.08314514,-0.20105438,77.64130702,12.8819618,4.75
152179154792,-0.59880674,-0.78933257,10.732033,0.42321318,-0.06006012,-0.084135436,77.64130702,12.8819618,4.75
152179154814,-0.7122253,-4.193959,2.6911912,-0.31811827,0.027903747,0.08201294,77.64130702,12.8819618,4.75
152179154835,0.4614517,-0.2807373,14.275087,-0.56808317,0.016539002,-0.05823517,77.64130702,12.8819618,4.75
152179154856,-0.71078795,-0.37441865,8.678395,0.68820494,0.08286743,-0.12615967,77.64130702,12.8819618,4.75
152179154877,0.43919984,-0.5577072,12.650958,-0.13791199,0.007865906,-0.08706818,77.64129125,12.88199273,4.29
152179154899,0.51637113,0.38183594,10.633928,0.054135133,-0.03183899,-0.12212982,77.64129125,12.88199273,4.29
152179154920,-0.62560576,0.2044098,9.8849745,0.07637024,-0.16268158,-0.22756653,77.64129125,12.88199273,4.29
152179154941,-0.032304384,-0.832283,7.2618437,-0.083544925,-0.06885071,0.14345245,77.64129125,12.88199273,4.29
152179154962,-0.89874876,-0.49214476,10.519793,0.058892824,0.109623715,0.15164033,77.64129125,12.88199273,4.29
152179154984,0.15050659,-0.21852417,10.33375,-0.046040345,0.1907425,0.039619446,77.6412689,12.88202817,4.19
152179155005,0.9314041,-0.25884247,9.817136,0.043380737,0.036332704,-0.25358582,77.6412689,12.88202817,4.19
152179155026,-0.49101105,-0.3865021,10.15357,0.036901854,-0.15523072,-0.24271241,77.6412689,12.88202817,4.19
152179155047,-0.6052658,-1.1063797,9.821327,-0.09722748,-0.20482635,-0.048582457,77.6412689,12.88202817,4.19
152179155069,-0.32470703,-1.2793823,8.78284,0.054617308,-0.1333603,0.11217956,77.6412689,12.88202817,4.19
152179155090,0.07489471,-0.8085968,9.022362,-0.009028626,0.049516298,0.21357879,77.64124592,12.88206443,4.79
152179155111,0.7801773,-0.75451815,9.500689,-0.032118224,0.019340515,0.050367735,77.64124592,12.88206443,4.79
152179155132,-0.00287323,-1.8383453,9.195841,0.038859557,-0.10868225,-0.040884398,77.64124592,12.88206443,4.79
152179155154,-0.8658447,-1.006244,8.979889,0.0018371582,-0.094630435,0.14247894,77.64124592,12.88206443,4.79
152179155175,-0.20279388,-0.7347733,9.871452,0.0073349,0.031317137,0.23214874,77.64122866,12.88210316,5.11
152179155196,-0.1076767,-1.1294693,10.012995,0.014541626,0.089099124,0.15408325,77.64122866,12.88210316,5.11
152179155217,0.07644959,-0.9705887,8.919472,0.0014724731,0.05403595,0.041456603,77.64122866,12.88210316,5.11
152179155239,0.16222993,-1.1962311,10.038595,0.009536743,0.00945282,0.038275145,77.64122866,12.88210316,5.11
152179155260,-0.21320191,-1.193721,9.629181,-0.025883485,0.005418396,0.059892274,77.64122866,12.88210316,5.11
152179155281,-0.470311,-1.0194016,9.966927,-0.020025635,0.076638795,0.14272308,77.64119984,12.88214042,4.94
152179155302,-0.24215698,-1.0453644,9.995046,0.022483826,0.1799942,0.13233642,77.64119984,12.88214042,4.94
152179155324,1.3533783,-1.084726,10.247249,-0.0075653074,0.070166014,-0.15853882,77.64119984,12.88214042,4.94
152179155345,-0.7779083,-1.3509293,9.819056,-0.0023086548,-0.115278624,-0.22658691,77.64119984,12.88214042,4.94
152179155366,-0.93763125,-0.96101683,9.404854,0.001963806,-0.02878418,0.10460968,77.64119984,12.88214042,4.94
152179155388,0.25375825,-0.9023941,10.025675,-0.00683136,0.019960022,0.030943299,77.64118279,12.88217308,4.74
152179155409,-0.46445006,-1.0356735,9.361183,0.0133255,-0.03305664,-0.064956665,77.64118279,12.88217308,4.74
152179155410,-0.5716461,-1.2930206,9.647728,-0.087574765,0.08127747,0.10765991,77.64118279,12.88217308,4.74
152179155431,0.5618332,-0.25967866,14.204496,0.37055817,0.12220917,-0.070941165,77.64118279,12.88217308,4.74
152179155453,-0.25950012,-3.162294,4.2434173,0.02029419,0.08763428,-0.119320676,77.641169,12.88220562,4.65
152179155473,-0.014237976,0.58773804,14.590462,-0.9273895,0.06210785,-0.21668395,77.641169,12.88220562,4.65
152179155495,-0.25699005,-0.15679169,8.992811,0.767247,0.013847351,-0.31491548,77.641169,12.88220562,4.65
152179155516,-1.2726243,0.15954284,14.912773,0.020661926,-0.2859497,-0.15682983,77.641169,12.88220562,4.65
152179155537,-0.8127243,0.5985077,8.159632,0.01076355,-0.15412903,0.11877899,77.641169,12.88220562,4.65
152179155558,-0.17647247,-0.31591034,9.810083,0.07563629,-0.0041107177,0.11242676,77.64115111,12.88223427,4.41
152179155580,-0.7830536,0.54347074,10.372393,-0.13204499,0.02776947,0.13979188,77.64115111,12.88223427,4.41
152179155601,-0.44016418,-0.58665925,9.732672,0.06268158,0.11328735,0.102529906,77.64115111,12.88223427,4.41
152179155622,0.23521271,-0.83610994,9.70001,-0.060824584,0.15653686,0.031433105,77.64115111,12.88223427,4.41
152179155644,0.38428497,-0.50123596,9.788544,0.023464967,-0.0041091917,-0.18040466,77.64115111,12.88223427,4.41
152179155665,-0.61303866,-0.9713043,10.102602,0.027252197,-0.19884643,-0.20276642,77.64112243,12.88227961,4.79
152179155686,-0.9424149,-1.1986191,9.597117,-0.040548705,-0.18125153,0.08799286,77.64112243,12.88227961,4.79
152179155707,0.06639709,-0.8009354,8.968882,0.037391663,-0.09121247,0.14809723,77.64112243,12.88227961,4.79
152179155729,-1.4638093,-0.95240176,11.722902,0.0035476685,-0.014489746,0.1859726,77.64112243,12.88227961,4.79
152179155750,-1.0778503,-0.7939987,11.673731,-0.01269989,0.03424225,0.15640716,77.64112243,12.88227961,4.79
152179155771,-0.3906296,-0.52049714,9.825633,-0.005123901,0.06221924,0.11804199,77.64108949,12.88232992,5.13
152179155808,-0.10277252,-1.5811188,9.235323,0.008312988,0.04854126,0.08994293,77.64108949,12.88232992,5.13
152179155830,0.08290863,-1.619281,10.258612,0.00843811,0.0040740967,0.05024109,77.64108949,12.88232992,5.13
152179155851,-0.84550476,-1.8528214,10.083217,0.007460022,0.039505005,0.13331452,77.64108949,12.88232992,5.13
152179155872,-0.38991088,-1.9089324,9.291555,-0.046046447,0.119277954,0.17387848,77.64106331,12.88236116,5.02
152179155893,-0.048815917,-1.7462219,9.37925,0.0042816163,0.16813965,0.050247192,77.64106331,12.88236116,5.02
152179155915,0.1517044,-1.8641876,9.836042,0.046920776,0.13051453,-0.10930176,77.64106331,12.88236116,5.02
152179155936,0.67573243,-2.336888,9.534068,0.014422608,-0.019010926,-0.29597932,77.64106331,12.88236116,5.02
152179155957,-0.9332031,-1.9735397,9.619371,0.08393707,-0.09927521,-0.22341156,77.64106331,12.88236116,5.02
152179155978,-0.41192475,-1.7120056,10.796999,0.037268065,-0.061158754,-0.030622864,77.64103126,12.8824004,4.59
152179156000,-0.32016143,-1.2888352,7.118872,-0.042630006,0.0037139892,0.024345398,77.64103126,12.8824004,4.59
152179156021,-0.33846742,-1.4513077,12.482145,-0.13682099,0.014830017,-0.052250672,77.64103126,12.8824004,4.59
152179156042,-0.2530411,-0.7768906,8.76035,0.2770935,-0.014251709,-0.04650726,77.64103126,12.8824004,4.59
152179156063,0.15337983,-1.8108292,7.7596693,-0.08428955,0.007986451,-0.11675415,77.64103126,12.8824004,4.59
152179156085,-0.8886963,-0.43555298,10.563818,-0.2449356,-0.05505066,-0.08682098,77.64100499,12.88243495,4.2
152179156106,-0.6597015,0.62494504,8.60565,0.28918916,-0.018888855,-0.010954285,77.64100499,12.88243495,4.2
152179156127,-0.45296478,-0.75954133,11.791456,-0.06815491,0.06283569,0.030218506,77.64100499,12.88243495,4.2
152179156148,-0.24322967,-0.4349533,8.50659,-0.07059784,0.0337616,-0.024880981,77.64100499,12.88243495,4.2
152179156170,-0.30329132,0.19172668,12.430817,0.13952485,-0.025488282,-0.15841064,77.64097865,12.88246876,3.99
152179156191,-1.7529846,0.20476532,11.911097,-0.04140625,-0.07300873,-0.07802582,77.64097865,12.88246876,3.99
152179156212,-1.4659653,0.17437592,12.944914,-0.0025573731,-0.009480285,0.02154541,77.64097865,12.88246876,3.99
152179156233,0.4665985,-0.013221741,10.072093,-0.0041473387,0.011405945,-0.024391174,77.64097865,12.88246876,3.99
152179156255,0.4286743,-0.33960113,8.13941,0.017843628,-0.03831024,-0.090364076,77.64097865,12.88246876,3.99
152179156276,-0.6599442,-0.2814575,10.814349,0.032263182,-0.060668945,-0.02268219,77.64095776,12.8824985,3.99
152179156297,-0.6856674,-0.1236496,10.147227,0.013446045,-0.03110199,0.026789855,77.64095776,12.8824985,3.99
152179156319,0.59389955,-0.6068802,8.794324,-0.030039977,0.006518555,0.055978395,77.64095776,12.8824985,3.99
152179156340,-0.85340273,-0.075553894,10.610599,0.0072158813,0.048291016,0.043769836,77.64095776,12.8824985,3.99
152179156361,-0.08602295,-0.107975766,10.275006,-0.0072036744,0.038890075,-0.0032546998,77.64095776,12.8824985,3.99
152179156382,0.07896118,-0.382312,9.1761,-1.1749267E-4,0.014213562,-0.053834535,77.64095265,12.88254133,4.05
152179156404,0.36119232,-0.5017136,9.258054,0.010392761,-0.031835936,-0.07032776,77.64095265,12.88254133,4.05
152179156425,0.04893036,-0.33960265,9.916919,2.5024413E-4,-0.07984924,-0.05505524,77.64095265,12.88254133,4.05
152179156446,-0.10109711,-0.6505478,9.781366,0.009291077,-0.096954346,0.01018219,77.64095265,12.88254133,4.05
152179156467,-0.21930389,-0.44201356,9.584554,0.010755921,-0.087179564,0.078826904,77.64095265,12.88254133,4.05
152179156489,-0.29216462,-0.37752685,9.481189,0.00831604,-0.038801573,0.1217102,77.64092942,12.88257914,4.53
152179156510,0.015431213,-0.38255158,9.724536,-0.0019485473,0.036686707,0.14431152,77.64092942,12.88257914,4.53
152179156531,0.11676788,-0.35479736,9.683023,0.002330017,0.035954285,0.055862427,77.64092942,12.88257914,4.53
152179156553,-0.15218659,-0.2223526,9.967646,-0.007933045,0.05342407,0.08065796,77.64092942,12.88257914,4.53
152179156574,-0.1317276,-0.114794925,9.865834,0.0028152466,0.13344574,0.08322601,77.64091305,12.88261224,4.84
152179156595,0.33989868,-0.4402191,9.862961,-0.0015838624,0.09862824,-0.052615356,77.64091305,12.88261224,4.84
152179156616,0.2689499,-0.62303007,9.661127,0.0026916503,0.0056640627,-0.09696045,77.64091305,12.88261224,4.84
152179156637,0.06759491,-0.29557496,10.325496,0.0072143553,-0.08278046,-0.09158783,77.64091305,12.88261224,4.84
152179156659,-0.23748931,-0.36807403,9.885214,-9.719849E-4,-0.11381225,-0.011810303,77.64091305,12.88261224,4.84
152179156680,-0.1679779,-0.34007874,9.485135,0.016990662,-0.075935364,0.069792174,77.64089655,12.88265885,5.22
152179156701,-0.25986022,-0.2964096,10.024118,0.008679199,-0.0054504396,0.109738156,77.64089655,12.88265885,5.22
152179156723,-0.2054245,-0.54514617,9.475444,0.004893494,0.07969208,0.1033844,77.64089655,12.88265885,5.22
152179156744,0.40259093,-0.6084366,9.567088,-0.02992401,0.105221555,0.034487914,77.64089655,12.88265885,5.22
152179156765,0.1913025,-0.52827454,9.979372,-0.0056152344,0.043408204,-0.060919188,77.64089655,12.88265885,5.22
152179156786,0.19381866,-0.32332915,9.817617,-3.5858154E-4,-0.03757782,-0.069229126,77.64086984,12.88270607,5.93
152179156808,-0.10121765,-0.67674714,9.7865095,0.0068496703,-0.062626645,-0.010462952,77.64086984,12.88270607,5.93
152179156829,-0.3720871,-0.31519622,9.986071,-0.0012145996,-0.04381256,0.040837098,77.64086984,12.88270607,5.93
152179156850,-0.33499908,-0.80751646,9.831856,0.0044052126,0.021057129,0.08188019,77.64086984,12.88270607,5.93
152179156871,0.08135529,-0.42610168,10.183718,-0.036758423,0.10681305,0.07308807,77.64084251,12.88276019,6.26
152179156893,0.19345856,-0.9458206,9.517557,0.033361815,0.12379608,-0.014251709,77.64084251,12.88276019,6.26
152179156914,0.4237686,-0.4667801,9.711855,-0.038838197,0.051959228,-0.10319366,77.64084251,12.88276019,6.26
152179156935,-0.09930573,-0.4076767,10.3231,0.024317931,-0.017791748,-0.10770874,77.64084251,12.88276019,6.26
152179156956,-0.30676118,-0.7802399,9.477835,-0.018441772,-0.054927062,-0.072647095,77.64084251,12.88276019,6.26
152179156978,-0.2739807,-0.6026901,9.742963,0.01698761,-0.048451234,-0.016326904,77.64081538,12.88280919,6.28
152179156999,-0.16426697,-0.5048248,10.047566,0.015890503,-0.017420959,0.0074951174,77.64081538,12.88280919,6.28
152179157020,-0.051086426,-0.47874755,10.053309,-0.008183288,0.014825439,0.009570313,77.64081538,12.88280919,6.28
152179157041,0.05443573,-0.35862428,10.075205,-0.001826477,0.0034713745,-0.028300475,77.64081538,12.88280919,6.28
152179157063,-0.108996585,-0.3717804,10.102719,-0.005975342,-0.0026382445,-0.026593018,77.64081538,12.88280919,6.28
152179157084,-0.0792038,-0.5178665,9.899089,-0.018440247,0.013485718,-8.0871585E-5,77.64079179,12.88285347,5.71
152179157105,-0.10277405,-0.4710861,10.023039,0.014300537,0.032414246,-0.008998108,77.64079179,12.88285347,5.71
152179157126,0.0013153076,-0.554834,10.0394335,0.008802796,0.036073305,-0.02646942,77.64079179,12.88285347,5.71
152179157148,0.0033493042,-0.83945924,9.648682,0.0011077881,0.05158844,-0.028666686,77.64079179,12.88285347,5.71
152179157169,-0.064250186,-0.9800415,9.188663,-0.010743713,0.07015991,-0.0381958,77.6407603,12.88291251,6.32
152179157190,0.14679718,-0.9570694,9.326251,-0.006713867,0.07223816,-0.08486786,77.6407603,12.88291251,6.32
152179157211,0.106480405,-0.37991792,9.926371,-0.005493164,0.021546936,-0.1265274,77.6407603,12.88291251,6.32
152179157233,0.115931705,-0.7908859,9.948265,0.019921875,-0.055290222,-0.14656219,77.6407603,12.88291251,6.32
152179157254,-0.17132874,-0.88720095,9.399591,0.014913941,-0.06750794,-0.074969485,77.6407603,12.88291251,6.32
152179157275,-0.3477997,-0.8014191,9.492075,-0.022463989,-0.04112091,-0.03110962,77.64072138,12.88297698,6.63
152179157296,-0.17814636,-0.5306656,9.946829,0.015032959,0.010671997,-0.023779297,77.64072138,12.88297698,6.63
152179157318,-0.14811555,-0.6376282,10.033211,0.02565918,0.056359865,-0.028546143,77.64072138,12.88297698,6.63
152179157339,0.2355713,-0.39619142,10.224756,-0.041156005,0.019348145,-0.111376956,77.64072138,12.88297698,6.63
152179157360,-0.14261322,-1.2150147,8.769678,0.033114623,-0.002633667,-0.08547668,77.64072138,12.88297698,6.63
152179157381,0.05862274,-1.045723,9.006328,0.0072158813,-0.011431885,-0.07216034,77.64070669,12.88301456,5.64
152179157403,-0.2818756,-0.81110686,10.733111,-0.0037780763,-0.018644715,-0.07216034,77.64070669,12.88301456,5.64
152179157424,-0.11138763,-0.9454651,10.01814,-0.027113343,-0.045150757,-0.07582245,77.64070669,12.88301456,5.64
152179157445,-0.20159912,-1.2454056,9.234726,-0.021618653,-0.055049133,-0.04772644,77.64070669,12.88301456,5.64
152179157466,0.58636016,-1.3181473,8.297457,0.01149292,-0.060057066,-0.055181883,77.64070669,12.88301456,5.64
152179157488,-1.1364746,-0.65030974,11.6443,-0.0030426024,-0.043806456,0.0027328492,77.64068108,12.88308156,6.21
152179157509,0.22013855,-1.2602402,9.123579,0.013446045,-0.019375611,0.011767578,77.64068108,12.88308156,6.21
152179157530,0.60394746,-1.3331039,8.301285,-0.038223267,0.017385865,0.020687867,77.64068108,12.88308156,6.21
152179157551,-0.7420166,-0.19256134,10.66958,0.050830077,0.027407836,-0.008146668,77.64068108,12.88308156,6.21
152179157573,-0.68111724,-1.5484543,11.315283,-0.010374451,0.011650085,-0.031233216,77.6406682,12.88313789,6.46
152179157594,-0.08829804,-1.1781662,9.877675,-0.06278229,0.010917664,-0.00337677,77.6406682,12.88313789,6.46
152179157615,0.1842453,-0.7719833,9.591495,0.054736327,0.061247252,0.0013824463,77.6406682,12.88313789,6.46
152179157636,0.5490311,-0.9809967,8.462683,-0.0073196413,0.047563173,-0.049069215,77.6406682,12.88313789,6.46
152179157658,0.46755522,-1.0625916,7.9550447,-0.024179077,0.02654419,-0.067884825,77.6406682,12.88313789,6.46
152179157679,0.5746368,-1.6780258,7.773309,0.052661132,-0.010943604,-0.08059235,77.6406507,12.88319373,6.46
152179157700,0.64127505,-1.8342758,8.171715,0.0024490356,-0.06604157,-0.08156433,77.6406507,12.88319373,6.46
152179157722,0.21810302,-1.6557709,8.093228,7.4310304E-4,-0.056758117,-0.010708618,77.6406507,12.88319373,6.46
152179157743,0.30759734,-1.6512283,8.308703,0.017721558,0.0018783569,0.01690216,77.6406507,12.88319373,6.46
152179157764,0.5602783,-0.92237395,8.1498165,-0.0029281615,0.006401062,-0.023780823,77.6406507,12.88319373,6.46
152179157785,0.092602536,-0.92524564,8.970082,0.021018982,-0.04222107,-0.049189758,77.64063527,12.88324661,6.51
152179157807,-0.02931366,-1.3557113,11.166452,5.0048827E-4,-0.081925966,-0.024028014,77.64063527,12.88324661,6.51
152179157828,-0.18807831,-0.12735748,10.866391,-0.019654846,-0.13140564,-0.0052093505,77.64063527,12.88324661,6.51
152179157849,-0.026322937,-1.5886551,9.248125,0.067445375,-0.15815887,0.020318603,77.64063527,12.88324661,6.51
152179157871,-0.8075775,-1.091069,8.702324,-0.017221069,-0.07508087,0.19415283,77.64063245,12.88330413,6.33
152179157892,-0.37710875,-1.1224152,10.777379,0.021508789,0.166922,0.29532012,77.64063245,12.88330413,6.33
152179157913,0.67597044,-0.9463013,10.045893,-0.0014541626,0.26209563,0.09960327,77.64063245,12.88330413,6.33
152179157934,0.075854495,-1.2083175,11.340053,-0.06522675,0.17559357,-0.06947327,77.64063245,12.88330413,6.33
152179157955,0.5452011,-0.60663605,9.96669,0.081495665,0.05220642,-0.15657806,77.64063245,12.88330413,6.33
152179157977,-0.41300353,-1.099083,9.052511,-0.02564392,-0.059812926,-0.13031158,77.64062238,12.88334572,6.03
152179157998,-0.15086976,-0.7968689,9.444214,-0.005369568,-0.08400269,-0.04650421,77.64062238,12.88334572,6.03
152179158019,-0.45033264,-1.2457612,10.138971,0.0020828247,-0.057736207,0.018368531,77.64062238,12.88334572,6.03
152179158040,0.017585754,-0.89736784,9.04174,0.0160141,-0.027314758,0.027528381,77.64062238,12.88334572,6.03
152179158062,-0.3171707,-0.8620697,9.884733,-2.3803712E-4,0.04230957,0.05952301,77.64062238,12.88334572,6.03
152179158083,0.20195465,-1.0578048,10.258733,-0.017581176,0.048905946,-0.008026123,77.64060771,12.88340823,5.68
152179158104,0.38536224,-0.9437882,9.615903,0.03714905,-0.01448822,-0.08572235,77.64060771,12.88340823,5.68
152179158125,0.08015747,-1.2379868,10.3706,-0.018075561,-0.089746095,-0.064216614,77.64060771,12.88340823,5.68
152179158147,-0.9390656,-0.74446714,9.521385,-0.001826477,-0.031591795,0.088969424,77.64060771,12.88340823,5.68
152179158168,-0.16486664,-1.1478958,10.100209,0.017478943,0.049147032,0.08322754,77.6405939,12.88346406,5.6
152179158189,0.47796327,-0.9763306,9.3169155,-0.020509338,0.025694275,-0.031233216,77.6405939,12.88346406,5.6
152179158210,-0.17419891,-1.0116241,9.165091,-0.016728211,6.591797E-4,-0.016326904,77.6405939,12.88346406,5.6
152179158232,-0.03565674,-0.8039276,9.519705,0.0039169313,0.056355286,0.048532106,77.6405939,12.88346406,5.6
152179158253,0.23832397,-0.95695037,9.982485,-0.027478028,0.06466369,-0.030010987,77.6405939,12.88346406,5.6
152179158274,0.42902985,-0.83934176,11.049085,0.07318878,0.01800232,-0.069963075,77.64058461,12.88351718,5.55
152179158296,-0.4567917,-1.7068573,10.448843,-0.039326478,0.023864746,-0.04137268,77.64058461,12.88351718,5.55
152179158317,0.089608766,-0.43016967,9.814505,-0.054837037,-0.011192322,-0.052981567,77.64058461,12.88351718,5.55
152179158338,0.11880036,-0.7018738,10.185991,0.15333709,-0.02841797,-0.11235199,77.64058461,12.88351718,5.55
152179158360,-0.3142975,-0.8162521,9.704555,-0.10700073,-0.11894226,-0.07338409,77.64058461,12.88351718,5.55
152179158381,-0.47808838,-0.65174407,9.78615,0.019192506,-0.0044799806,0.06404877,77.64058247,12.88357469,5.91
152179158402,-0.25567475,-1.3484161,9.588144,-0.008296204,0.031683348,0.04157257,77.64058247,12.88357469,5.91
152179158423,-0.2000412,-0.7094116,9.325177,-0.004270935,0.052449036,0.021058654,77.64058247,12.88357469,5.91
152179158445,0.540538,-1.4843277,10.932791,0.016012574,0.10681458,-0.0033782958,77.64058247,12.88357469,5.91
152179158466,0.68781435,-1.0117432,10.007967,0.11069641,0.038890075,-0.16513519,77.64057174,12.88362493,5.23
152179158487,0.042111207,-1.1957519,10.195442,-0.16503295,-0.12322235,-0.19970855,77.64057174,12.88362493,5.23
152179158508,-0.7986053,-0.657489,9.701086,0.0011093139,-0.1292038,-0.049926758,77.64057174,12.88362493,5.23
152179158530,-0.63326263,-1.0752732,10.210999,0.13769531,-0.06384583,0.105334476,77.64057174,12.88362493,5.23
152179158551,-0.5187653,-1.6381836,10.2979765,-0.06656341,0.02997284,0.109370425,77.64057174,12.88362493,5.23
152179158572,0.3631088,-1.2828506,9.226233,0.023344422,0.03803406,0.02911377,77.64055623,12.88365489,4.85
152179158593,-0.30401,-1.4132599,10.435202,-0.00952301,0.02080841,-0.004234314,77.64055623,12.88365489,4.85
152179158615,0.18053894,-2.176332,9.836042,0.021264648,0.0063949586,-0.007409668,77.64055623,12.88365489,4.85
152179158636,-0.028355408,-2.8258653,9.691515,-0.026016235,-0.032565307,-0.029768372,77.64055623,12.88365489,4.85
152179158657,-0.5450867,-1.9633697,9.671654,0.0012283325,-0.021084595,0.026182557,77.64055623,12.88365489,4.85
152179158678,-0.40977174,-2.1321838,9.875882,0.0057495115,-0.013630676,0.07589722,77.64054895,12.88369379,4.41
152179158700,0.09355621,-0.96652067,12.926851,0.32035065,0.024597168,0.05732727,77.64054895,12.88369379,4.41
152179158721,-0.10061951,-1.2073578,5.5159197,0.18999024,-0.015226746,0.065510556,77.64054895,12.88369379,4.41
152179158742,-0.02859497,-4.001817,12.679075,-1.0323303,-0.041734315,0.06771088,77.64054895,12.88369379,4.41
152179158763,-0.4408783,-0.36089477,8.368162,-0.09454193,-0.093530275,0.070646666,77.64054895,12.88369379,4.41
152179158785,-0.6605423,0.27380067,8.583278,0.6221069,0.00456543,0.17986298,77.64054638,12.88372031,3.14
152179158806,-0.3213562,-1.4556122,12.474248,-0.005116272,0.04206543,0.2319107,77.64054638,12.88372031,3.14
152179158827,-0.35258025,0.13465881,7.7321534,-0.024299622,0.19758606,0.30997926,77.64054638,12.88372031,3.14
152179158848,0.5672165,-1.3138412,11.584478,0.0014785767,0.30301666,0.11645965,77.64054638,12.88372031,3.14
152179158870,0.68494415,-0.82701874,9.264158,-0.091244504,0.114874266,-0.36305085,77.64054307,12.88375341,3.21
152179158891,-0.06999054,0.063591,10.85024,0.17055663,-0.017425537,-0.4705658,77.64054307,12.88375341,3.21
152179158912,-0.66401064,-0.17832336,9.35903,0.04190979,-0.09780731,-0.37441406,77.64054307,12.88375341,3.21
152179158933,-1.1062012,-1.0719254,9.729202,0.036657713,-0.05125885,-0.10074921,77.64054307,12.88375341,3.21
152179158955,-0.07752838,-0.8154144,9.75313,-0.014408874,-0.018760681,-0.1161438,77.64054307,12.88375341,3.21
152179158976,0.20434722,-0.24687958,9.451036,0.038858034,-0.027316283,-0.15413971,77.64054259,12.8837867,3.4
152179158997,0.1454834,-1.3120453,9.717834,0.007093811,-0.14667511,-0.29928285,77.64054259,12.8837867,3.4
152179159018,-1.4673996,-1.2213562,9.627268,0.01002655,-0.13751373,-0.04320526,77.64054259,12.8837867,3.4
152179159040,-0.5714096,-1.2632325,9.683981,-0.0015823364,-0.017666627,0.21199493,77.64054259,12.8837867,3.4
152179159061,0.48430482,-1.5655625,9.691635,0.015888978,0.048298646,0.12769775,77.64054259,12.8837867,3.4
152179159082,0.5870773,-0.7968689,9.963461,0.0040359497,-0.015589905,-0.07216034,77.64054641,12.8838183,2.81
152179159103,0.24215241,-1.2661026,8.914686,-0.0028030395,-0.10550537,-0.13923188,77.64054641,12.8838183,2.81
152179159125,-0.9135803,-0.9324234,8.854388,-0.0040252684,-0.09719696,0.062217712,77.64054641,12.8838183,2.81
152179159146,-1.2009583,-0.8879181,9.918356,0.01662445,0.021298219,0.3573807,77.64054641,12.8838183,2.81
152179159167,-0.08506775,-0.9765701,9.790698,0.012832642,0.11328735,0.3628784,77.64054884,12.88384196,2.49
152179159188,0.19046478,-0.42406923,9.794528,0.008311463,0.18414612,0.22738953,77.64054884,12.88384196,2.49
152179159210,0.46552125,-0.23730774,10.508665,-0.0040252684,0.16936341,-0.042355347,77.64054884,12.88384196,2.49
152179159231,0.74129486,-0.5061432,9.504994,0.027497863,0.09936066,-0.3277405,77.64054884,12.88384196,2.49
152179159252,-0.14177552,-0.43902284,9.790937,0.04508667,0.011404419,-0.41387787,77.64054884,12.88384196,2.49
152179159273,-0.20494843,-0.40289155,9.769524,0.034947205,-0.06347809,-0.39359435,77.6405453,12.88387271,2.7
152179159295,-0.7342392,-0.80010223,10.092909,0.03543701,-0.0552948,-0.2097229,77.6405453,12.88387271,2.7
152179159316,-0.37543488,-0.92692107,10.017296,-0.06485748,-0.01522522,-0.125914,77.6405453,12.88387271,2.7
152179159337,-0.020819092,-0.77772677,9.845014,3.7231445E-4,0.007501221,-0.13507995,77.6405453,12.88387271,2.7
152179159358,-0.29312134,-0.3624527,9.763179,-0.015383911,0.018482972,-0.16147614,77.6405453,12.88387271,2.7
152179159380,-0.054078676,-0.48628083,9.589701,0.05608368,0.028869629,-0.15413666,77.64054781,12.88389827,2.09
152179159401,0.16534272,-0.74470824,10.232533,-0.0544693,0.0010253906,-0.23123169,77.64054781,12.88389827,2.09
152179159422,0.05000763,-1.1340164,9.945272,-0.013183594,-0.060061645,-0.31308898,77.64054781,12.88389827,2.09
152179159443,-0.55896455,-0.8082367,9.774786,0.040078737,-0.08888855,-0.2375824,77.64054781,12.88389827,2.09
152179159465,-0.7659439,-1.3415954,8.774824,-0.06278076,-0.05028534,0.022880554,77.64054781,12.88389827,2.09
152179159486,-0.24969177,-1.7528015,14.678637,-0.16748047,0.032174684,0.04792633,77.64055676,12.88392667,2.41
152179159507,0.531926,-1.2087936,4.1707964,0.20293579,-0.03917389,-0.13960114,77.64055676,12.88392667,2.41
152179159528,-0.22384796,0.46630096,9.624155,0.40305328,0.025941467,-0.0645874,77.64055676,12.88392667,2.41
152179159550,1.1452026,-1.1091309,11.191457,-0.48780823,-0.07216034,-0.19335632,77.64055676,12.88392667,2.41
152179159571,-0.6582672,-0.3954727,8.43696,0.11142578,0.015678406,-0.12750092,77.64056383,12.88394625,2.2
152179159592,-0.7107895,-0.5551956,9.323858,-0.009020996,-0.08388214,-0.05799408,77.64056383,12.88394625,2.2
152179159614,-0.7310074,-1.4416138,7.43389,-0.0834259,0.026187133,0.23361817,77.64056383,12.88394625,2.2
152179159635,0.07836151,-1.1188247,13.085138,-0.13706055,0.05354614,0.22041932,77.64056383,12.88394625,2.2
152179159656,0.44769287,-0.57733,10.632853,0.27722016,0.008837891,-0.059332274,77.64056383,12.88394625,2.2
152179159677,-0.9695724,-0.06885223,8.380129,0.23213653,0.027770996,0.007368469,77.64057322,12.88396155,1.97
152179159698,-0.2147583,-0.6375061,12.478556,0.08614044,0.046832275,0.001992798,77.64057322,12.88396155,1.97
152179159720,-0.32267457,-1.6439316,9.783038,-0.3495102,0.04438629,-0.017304992,77.64057322,12.88396155,1.97
152179159741,-0.5261841,0.8398239,7.6735277,0.114974976,0.107055664,0.010424805,77.64057322,12.88396155,1.97
152179159762,0.97339934,-1.522496,11.73307,0.011743164,0.0970398,-0.15426178,77.64057322,12.88396155,1.97
152179159784,0.10839538,0.7096527,8.172432,-0.19008179,-0.0012985229,-0.27850953,77.64058208,12.88397542,1.96
152179159805,0.87194365,-0.63367766,10.285535,0.27379456,-0.18516083,-0.5521774,77.64058208,12.88397542,1.96
152179159826,-2.5963364,0.13094635,10.781565,-0.0214859,-0.21228485,-0.27350464,77.64058208,12.88397542,1.96
152179159847,-1.277771,-0.103068545,9.423396,0.012722778,-0.07508393,0.34185943,77.64058208,12.88397542,1.96
152179159869,-0.7722839,-0.8532211,9.68326,-0.08000183,0.09056397,0.3887787,77.64059252,12.88398769,1.87
152179159890,0.2602188,-0.9126831,9.959513,-0.03126831,0.22006989,0.36458436,77.64059252,12.88398769,1.87
152179159911,1.2064606,-0.7371689,9.531433,0.114723206,0.14822999,-0.12702179,77.64059252,12.88398769,1.87
152179159932,0.4120407,-0.9979843,10.55616,0.033602905,0.051231384,-0.38406524,77.64059252,12.88398769,1.87
152179159954,0.6806351,-1.2774689,9.912251,0.054006957,-0.21729584,-0.73604584,77.64059252,12.88398769,1.87
152179159975,-1.9629548,-0.18645935,9.221085,0.010758972,-0.18443298,-0.29365999,77.64060317,12.88399974,1.85
152179159996,-1.0705506,-0.49334106,10.515363,-0.031141663,0.025939941,0.19794312,77.64060317,12.88399974,1.85
152179160017,0.6979858,-1.455014,6.8264694,-0.35855561,0.0018753052,0.13038483,77.64060317,12.88399974,1.85
152179160039,-2.0915666,0.4588852,12.150978,0.3095978,0.16350403,0.081767276,77.64060317,12.88399974,1.85
152179160060,0.52127534,-0.37740937,8.626947,0.035557557,0.19233093,0.18524627,77.64060317,12.88399974,1.85
152179160081,1.078923,-1.1355743,10.670059,0.13660125,0.16973571,-0.22243194,77.64061471,12.88401281,1.98
152179160102,0.62225187,1.417566,10.697218,-0.07230683,-0.1145462,-0.5683014,77.64061471,12.88401281,1.98
152179160124,-0.88678133,-0.26518553,8.7591505,0.2681717,-0.11307678,-0.5703827,77.64061471,12.88401281,1.98
152179160145,-0.47844696,-0.37130585,9.230779,-0.052886963,-0.13825074,-0.12200775,77.64061471,12.88401281,1.98
152179160166,-0.06113739,-0.46594086,8.183321,0.00282135,0.040109254,0.13148499,77.64061471,12.88401281,1.98
152179160187,1.1879151,-0.69816434,8.774226,-0.028701782,0.074804686,0.0013778687,77.64063161,12.884026,2.42
152179160209,0.45272216,-0.51296234,7.692076,-0.006706238,0.05806885,-0.15499726,77.64063161,12.884026,2.42
152179160230,0.2766083,-0.3954727,8.228064,0.041908264,0.025691222,-0.23819275,77.64063161,12.884026,2.42
152179160251,-0.78520507,0.42502746,8.572271,0.016252136,-0.052848816,-0.26348573,77.64063161,12.884026,2.42
152179160272,-1.30708,0.41952056,11.048843,0.034214783,-0.11332397,-0.2390503,77.64065539,12.88403968,3.12
152179160294,-1.4301956,0.2370697,12.35317,0.0011077881,-0.1125885,-0.073625185,77.64065539,12.88403968,3.12
152179160315,-0.68877715,0.21098633,12.108508,-0.009156799,-0.08155823,0.0040740967,77.64065539,12.88403968,3.12
152179160336,-0.70205534,-0.04169464,12.593651,0.008558655,-0.036843874,0.069668576,77.64065539,12.88403968,3.12
152179160357,-0.7146179,0.16193542,10.573988,0.01650238,0.00945282,0.09116669,77.64065539,12.88403968,3.12
152179160379,-0.29814607,-0.75954133,9.18543,-0.1347351,0.09386597,0.093367,77.64068482,12.88405206,3.49
152179160400,0.35581207,-0.14709778,11.173271,-0.053253174,0.14456482,0.039743043,77.64068482,12.88405206,3.49
152179160421,0.38775635,-0.8422119,9.279472,0.17361298,0.09874878,-0.14766541,77.64068482,12.88405206,3.49
152179160442,-0.16008148,-1.0481186,9.777057,-0.035295106,0.044509888,-0.24564514,77.64068482,12.88405206,3.49
152179160464,0.16270904,-0.84472656,9.749301,-0.024909973,-0.07520752,-0.25517884,77.64068482,12.88405206,3.49
152179160485,-0.68052065,-1.0287338,10.067785,0.04020233,-0.10892639,-0.22963867,77.64071654,12.88406493,3.67
152179160507,-0.9119034,-0.6834534,9.811516,0.010391235,-0.04967041,0.009812927,77.64071654,12.88406493,3.67
152179160528,-0.075732425,-0.7425537,10.202261,0.082839966,-0.012782288,-0.011198426,77.64071654,12.88406493,3.67
152179160549,-0.09715271,-0.8419739,10.2496395,0.0061172484,-8.041382E-4,-0.06190033,77.64071654,12.88406493,3.67
152179160570,-0.07705078,-0.9995438,10.4325695,0.007460022,0.028262328,-0.044914246,77.64074761,12.88407491,3.23
152179160591,-0.006222534,-0.5878555,9.706467,0.43188325,0.035708617,-0.122494504,77.64074761,12.88407491,3.23
152179160613,0.22384796,-0.6924225,8.00948,0.26096496,-0.071295165,-0.18052979,77.64074761,12.88407491,3.23
152179160634,-0.41228485,-0.57804716,10.377179,-0.45872957,-0.15632935,-0.17625427,77.64074761,12.88407491,3.23
152179160655,-0.99924314,-0.8497513,9.611357,-0.39972535,-0.08937683,0.049513243,77.64074761,12.88407491,3.23
152179160677,-0.8472992,-0.5401184,8.527885,-0.13827667,0.035960387,0.26513976,77.64077737,12.88408282,3.27
152179160698,0.16426544,-1.0969269,10.57638,-0.2418747,0.14419861,0.17363282,77.64077737,12.88408282,3.27
152179160719,0.5769104,-1.2025726,9.915126,-0.004876709,0.09593811,-0.100383,77.64077737,12.88408282,3.27
152179160740,0.8408356,-0.72628325,10.396563,0.4493576,-0.0136352535,-0.30771026,77.64077737,12.88408282,3.27
152179160761,-1.3998047,0.34271088,9.820608,0.425412,-0.02646942,-0.21144104,77.64077737,12.88408282,3.27
152179160783,-0.27816772,-0.056411743,11.288008,0.021635437,-0.0047210692,-0.04198303,77.64080271,12.88408958,2.46
152179160804,-0.23031159,1.2844101,8.302126,0.28344727,-0.023898315,-0.08682251,77.64080271,12.88408958,2.46
152179160825,-0.029794311,-1.7151169,6.8631973,-0.16442719,-0.033058167,-0.08889618,77.64080271,12.88408958,2.46
152179160847,-0.092962645,0.84006196,13.653552,-0.9370407,-0.13299255,-0.080589294,77.64080271,12.88408958,2.46
152179160868,-1.2831528,1.5288346,9.301367,0.22859192,0.01018219,0.079322815,77.64082742,12.8840942,2.75
152179160889,0.3690918,0.328952,11.145395,0.45754546,-0.028172303,0.059407044,77.64082742,12.8840942,2.75
152179160910,-1.0084579,-0.57780457,9.259374,-0.14402008,0.050740052,0.19599152,77.64082742,12.8840942,2.75
152179160932,-0.78017884,-0.8694931,8.836321,0.058158875,0.2917816,0.18511352,77.64082742,12.8840942,2.75
152179160953,0.8782837,-1.1611786,10.471098,-0.13900909,0.29849854,-0.06483612,77.64082742,12.8840942,2.75
152179160974,1.2337387,-1.1476578,9.82121,0.054011535,0.08323975,-0.5654907,77.64085105,12.88409667,2.32
152179160995,0.8779251,-1.4921036,11.14683,0.24117737,-0.25088805,-0.86127776,77.64085105,12.88409667,2.32
152179161017,-1.9931015,-0.7941147,8.596319,0.08381653,-0.38124543,-0.44576874,77.64085105,12.88409667,2.32
152179161038,-0.97567594,-0.7955505,10.047808,0.012834167,-0.33347932,0.085791014,77.64085105,12.88409667,2.32
152179161059,-1.8442719,-0.721138,9.6684265,-0.025274659,-0.068855286,0.4861496,77.64085105,12.88409667,2.32
152179161080,0.3711258,-0.12185516,9.92673,0.080395505,0.11219025,0.51547086,77.64087482,12.88409641,2.69
152179161102,0.5684128,-0.20859376,9.460132,-0.041401673,0.06258698,0.20319518,77.64087482,12.88409641,2.69
152179161123,-0.46887818,-0.11395721,10.2070465,0.02627411,0.03229065,0.10118256,77.64087482,12.88409641,2.69
152179161144,-0.17958221,0.22558594,9.040428,0.04190979,0.07285156,0.13844451,77.64087482,12.88409641,2.69
152179161165,0.050964355,-0.75882417,10.526133,-0.05092621,0.13539886,0.109248355,77.64087482,12.88409641,2.69
152179161187,0.723468,-0.045043945,8.391014,-0.029800415,0.10375519,-0.01474762,77.64090055,12.88409608,2.73
152179161208,0.2606964,-0.04073944,11.370798,0.17752075,0.014700318,-0.22548524,77.64090055,12.88409608,2.73
152179161229,0.02631836,-0.5459808,8.89255,-0.06852265,-0.025848389,-0.2196228,77.64090055,12.88409608,2.73
152179161250,-0.31405944,-0.21230164,11.018335,-0.115795895,-0.073005676,-0.10746765,77.64090055,12.88409608,2.73
152179161272,-0.3578476,-0.2478363,8.429899,0.06512451,-0.019128418,-0.059454344,77.64092785,12.88409629,2.89
152179161293,-0.4639694,-0.07148285,10.430181,0.0529068,-0.0013000488,0.043772887,77.64092785,12.88409629,2.89
152179161314,-0.091285706,0.41126555,9.68075,-0.029800415,-0.0020248413,-0.008383179,77.64092785,12.88409629,2.89
152179161335,-0.3047287,-0.20991059,10.72318,-0.0123321535,-0.020596314,-0.083033755,77.64092785,12.88409629,2.89
152179161357,0.20877075,-0.08775482,9.115324,-0.021246338,-0.053948976,-0.06519623,77.64092785,12.88409629,2.89
152179161378,-0.018066406,0.655571,10.298457,0.043988038,-0.07105255,-0.053837586,77.64095812,12.88409727,3.17
