timestamp,accx,accy,accz,gyrx,gyry,gyrz,longitude,latitude,speed
152178999863,0.38177186,-0.7378845,9.5508175,-0.0096588135,-0.007121277,-0.0040283203,77.64629875,12.87808824,0.0
152178999884,0.15565033,-0.69182587,10.237676,2.3651123E-4,5.691528E-4,-0.0048828125,77.64629875,12.87808824,0.0
152178999905,0.16306762,-1.2098709,9.715085,9.6740725E-4,0.0076553347,-0.0056152344,77.64629875,12.87808824,0.0
152178999926,0.29371795,-0.80285037,10.205374,-6.1798096E-4,0.025123596,-0.0028060912,77.64629875,12.87808824,0.0
152178999947,-0.058865357,-1.2026917,9.695821,0.0023147583,0.03538513,-0.0040283203,77.64629875,12.87808824,0.0
152178999969,0.06699677,-0.8615967,10.185033,0.0037750243,0.044915773,-4.8522948E-4,77.64629875,12.87808824,0.0
152178999990,-0.28450623,-1.2133392,9.602861,0.0018234253,0.03722229,7.3394773E-4,77.64629873,12.87808837,0.0
152179000011,0.11964111,-0.8321625,10.233368,0.0019454956,0.01131897,-0.010990906,77.64629873,12.87808837,0.0
152179000032,-0.21595153,-0.7687546,9.722145,0.011106873,-0.026173402,-0.08001556,77.64629873,12.87808837,0.0
152179000054,0.022372436,-1.1193024,9.431175,0.007078552,-0.044132996,-0.12778473,77.64629873,12.87808837,0.0
152179000075,-0.8300705,-0.64671785,9.795244,0.0014511108,-0.020184327,-0.037257385,77.64629873,12.87808837,0.0
152179000096,0.3093918,-0.914595,9.321823,0.0034118653,-0.035334777,0.030291747,77.64629873,12.87808837,0.0
152179000118,-0.14476624,-0.79423827,9.565176,-4.974365E-4,0.0041091917,-0.015393066,77.64629873,12.87808837,0.0
152179000139,-0.14201812,-0.92333066,9.009201,0.0028030395,0.0030120849,0.0014678955,77.64629873,12.87808837,0.0
152179000160,-0.13017273,-0.09397888,9.832812,0.008662415,0.011804199,-0.010623169,77.64629873,12.87808837,0.0
152179000181,-0.07095184,0.037866212,9.642703,0.01000824,0.0014221191,-0.018318176,77.64629873,12.87808837,0.0
152179000202,0.111624144,0.04863281,9.627626,-0.0050170897,0.013026428,-0.027975464,77.64629865,12.87808849,0.0
152179000224,-0.39206392,0.19352111,9.724775,0.0101272585,0.031236267,-0.039945982,77.64629865,12.87808849,0.0
152179000245,-0.37734985,0.006640625,9.943359,0.0078063966,-0.004797363,-0.05093994,77.64629865,12.87808849,0.0
152179000266,0.05407715,0.54526675,9.441585,0.021125793,-0.003944397,-0.03200531,77.64629865,12.87808849,0.0
152179000287,-0.54903567,0.20261231,9.320508,0.018925477,-0.015182495,-0.0100158695,77.64629865,12.87808849,0.0
152179000309,-0.8036316,0.47240296,10.168524,0.019293213,0.015596008,0.0037887574,77.64629964,12.87808913,0.66
152179000330,-0.521756,0.3126831,9.566849,0.018440247,0.06947174,0.1536789,77.64629964,12.87808913,0.66
152179000351,-0.12203369,0.34319153,9.7554035,-0.010639953,0.1277481,0.07244263,77.64629964,12.87808913,0.66
152179000372,0.20003815,0.27080688,10.546471,0.011106873,0.07130585,-0.1905838,77.64629964,12.87808913,0.66
152179000394,0.25435334,0.04899597,10.024836,0.008180236,-0.022021484,-0.36858827,77.64630228,12.87808659,1.01
152179000415,-0.4511673,0.5088959,10.237556,0.14781189,-0.12501068,-0.42503205,77.64630228,12.87808659,1.01
152179000436,-1.1705704,0.8006958,9.790579,0.16211243,-0.11316071,-0.20732117,77.64630228,12.87808659,1.01
152179000457,-0.4492508,-0.31818542,9.353172,-0.22198029,-0.12818451,7.369995E-4,77.64630228,12.87808659,1.01
152179000479,-0.8221771,-0.21983948,7.6333284,-0.058033753,-0.019949341,0.064497374,77.64630228,12.87808659,1.01
152179000500,0.31273803,-0.61190337,9.62643,-0.009535218,0.021578979,0.18177947,77.64630267,12.8780825,1.66
152179000521,0.9584457,-0.92081755,8.315287,-0.03274689,0.019378662,0.018203735,77.64630267,12.8780825,1.66
152179000542,0.028833007,-0.9406784,8.715363,0.04714966,-0.038024902,-0.09406891,77.64630267,12.8780825,1.66
152179000564,-0.7960922,-1.0950149,9.613034,0.013304139,-0.060258485,0.014903259,77.64630267,12.8780825,1.66
152179000585,-0.5611191,-0.96963197,9.349818,-0.023583984,-0.006880188,0.1392624,77.64630267,12.8780825,1.66
152179000606,-0.31752777,-0.61668855,9.895505,0.054113768,0.04442749,0.12692413,77.64629904,12.87807394,2.45
152179000628,-0.46361083,-0.9267975,9.766889,0.02588501,0.03037262,0.037379455,77.64629904,12.87807394,2.45
152179000649,-0.22959289,-0.8842087,9.854587,-0.10225067,0.042718507,0.033590697,77.64629904,12.87807394,2.45
152179000670,-0.11366119,-0.6744766,9.098696,-0.038975526,0.0025268556,-0.09235535,77.64629904,12.87807394,2.45
152179000691,-1.0378891,-0.74578094,9.859968,0.03737793,0.081811525,0.027609253,77.64626974,12.87806565,3.3
152179000713,1.1706864,-0.64743805,9.821325,0.0394516,0.037590027,-0.09346161,77.64626974,12.87806565,3.3
152179000734,0.35796508,-0.9119644,10.385435,0.041647337,-0.14614563,-0.43615264,77.64626974,12.87806565,3.3
152179000755,-0.89252317,-0.64205474,9.223959,0.007077026,-0.17412415,-0.09284516,77.64626974,12.87806565,3.3
152179000776,-0.50596315,-0.922493,10.131314,-0.0014724731,-0.13771668,0.050082397,77.64626974,12.87806565,3.3
152179000798,-0.96407014,-1.1232513,9.607765,-0.021018982,-0.005529785,0.29161072,77.64622637,12.87806924,2.95
152179000819,0.20183106,-0.6649063,9.918953,0.01660614,0.07118225,0.23358002,77.64622637,12.87806924,2.95
152179000840,0.49758607,-0.90885466,9.278633,-0.015156555,0.038804628,0.018685913,77.64622637,12.87806924,2.95
152179000861,-0.08590393,-1.0899918,6.956041,-0.056448363,0.0033843995,-0.03982086,77.64622637,12.87806924,2.95
152179000883,-0.29719085,-0.3442688,11.761905,0.07598877,0.032948304,0.059732057,77.64622637,12.87806924,2.95
152179000904,-0.44267273,-1.0502685,8.327365,0.06535339,0.090237424,0.11128845,77.64618651,12.87807814,3.08
152179000925,0.6695099,-0.23359986,12.033132,-0.10775757,0.049440004,-0.10457458,77.64618651,12.87807814,3.08
152179000946,-0.28881225,0.023867797,8.625033,0.15881042,-0.069422916,-0.21489564,77.64618651,12.87807814,3.08
152179000968,-1.2199829,-0.29485625,11.164177,0.02711792,-0.034236144,-0.01991272,77.64618651,12.87807814,3.08
152179000989,0.046298217,-0.26410827,8.577181,-0.07293396,-0.034236144,0.015760804,77.64614853,12.87808478,2.71
152179001010,-0.499144,0.06275024,11.146472,0.08245697,0.07900085,0.0348114,77.64614853,12.87808478,2.71
152179001031,0.04677887,0.06753693,11.033053,-0.091508485,0.04577179,-0.0850235,77.64614853,12.87808478,2.71
152179001053,-0.3743576,0.5317429,11.252833,-0.054005433,-0.026174927,-0.22332306,77.64614853,12.87808478,2.71
152179001074,-0.8228943,-0.078186035,11.495227,0.07414856,-0.14174804,-0.19095612,77.64614853,12.87808478,2.71
152179001095,-0.9121491,-0.8034485,11.837277,0.042993166,-0.1138916,0.02210846,77.64611261,12.87809544,3.3
152179001116,-0.11964264,-0.60556334,10.967249,0.026379395,-0.06661377,0.11409454,77.64611261,12.87809544,3.3
152179001138,-0.28020173,-0.248674,10.135983,-0.017720032,-0.004679871,0.079646304,77.64611261,12.87809544,3.3
152179001159,-0.03613434,-1.1283966,10.507947,0.008782959,-0.028007507,0.021498108,77.64611261,12.87809544,3.3
152179001180,-0.032185365,-0.66694033,9.123816,0.009397889,-0.055371094,0.014292908,77.64611261,12.87809544,3.3
152179001201,-0.20733795,-0.85250396,9.437513,-0.03788147,-0.06869049,0.08172302,77.64607651,12.87810785,3.26
152179001223,-0.94959563,-0.9029907,9.992055,-0.01454773,0.013644409,0.1943634,77.64607651,12.87810785,3.26
152179001244,0.2191803,-1.0761108,9.84944,0.012937928,0.09500275,0.21769714,77.64607651,12.87810785,3.26
152179001265,0.10564117,-0.924884,9.2191725,0.004512024,0.15767518,0.07928009,77.64607651,12.87810785,3.26
152179001286,0.8242096,-1.1941955,10.042902,-0.020289611,0.064582825,-0.14599304,77.64604033,12.87811637,3.38
152179001308,-0.26512605,-0.58618164,9.4865675,0.04702606,-0.01750641,-0.17946777,77.64604033,12.87811637,3.38
152179001329,-0.19824524,-0.8846878,9.738176,-0.0023284913,-0.060749818,-0.10347442,77.64604033,12.87811637,3.38
152179001350,-0.351268,-1.2299697,9.034566,-0.05522461,-0.057447813,-0.013677979,77.64604033,12.87811637,3.38
152179001371,-0.279599,-0.7783264,10.413431,0.011352539,-0.022872925,0.014663696,77.64604033,12.87811637,3.38
152179001393,-0.09212341,-0.75631106,8.808683,0.10982361,-0.014082337,-0.012335205,77.64600242,12.87812437,3.64
152179001414,-0.02046051,-1.4339569,10.880986,-0.037753295,0.0069259643,0.003666687,77.64600242,12.87812437,3.64
152179001435,0.32027894,-1.2641876,8.687488,-0.062303163,-0.060256958,-0.062301636,77.64600242,12.87812437,3.64
152179001456,-0.39134675,-1.414334,10.502681,0.022836303,-0.05341797,-0.014169311,77.64600242,12.87812437,3.64
152179001478,-0.30353242,-1.2762725,5.315759,-0.03690033,-0.03448944,0.090516664,77.64600242,12.87812437,3.64
152179001499,-0.7122238,-1.3948333,15.792734,0.24898224,0.10587921,0.09638367,77.64596596,12.87812717,3.47
152179001520,1.1668564,-1.5540787,7.7070284,0.27317506,-0.0342453,0.056925964,77.64596596,12.87812717,3.47
152179001541,0.3381073,-0.7353729,13.451601,-0.4194107,0.09537659,-0.001222229,77.64596596,12.87812717,3.47
152179001563,-0.0491745,0.864827,7.1515336,0.13194123,-0.04267273,-0.04055939,77.64596596,12.87812717,3.47
152179001584,0.06352844,0.010948181,12.394091,0.059861757,0.069104,-0.07097473,77.64596596,12.87812717,3.47
152179001605,-0.19070892,0.5280365,7.9996705,-0.15344238,-0.14443512,-0.08135986,77.64593477,12.8781287,2.76
152179001627,-1.9897522,0.38805848,12.08685,0.14439698,0.033676147,0.120455936,77.64593477,12.8781287,2.76
152179001648,0.7640274,-0.07567139,7.6671877,-0.011000061,0.07985687,0.1265625,77.64593477,12.8781287,2.76
152179001669,-0.016271973,-0.079380795,10.325015,-0.12681122,0.042956542,-0.10347595,77.64593477,12.8781287,2.76
152179001690,0.08949127,0.31974182,9.238314,-0.1133667,-0.047921754,-0.1147171,77.64590786,12.87813218,2.81
152179001712,-0.3492325,-0.6519836,10.071734,0.039816283,-0.046940614,-0.06278839,77.64590786,12.87813218,2.81
152179001733,-0.3988846,-0.9393631,11.466034,0.0014572144,-0.06074829,0.0051315306,77.64590786,12.87813218,2.81
152179001754,-0.38883513,-0.54753876,10.131317,0.042871095,2.0446777E-4,0.05582123,77.64590786,12.87813218,2.81
152179001775,0.007777405,-1.3470962,8.925931,0.011109924,0.0047286986,0.0026870728,77.64590786,12.87813218,2.81
152179001796,-0.25794983,-0.754039,9.28653,0.0901535,-0.030084228,-0.05130768,77.64586865,12.87814138,4.53
152179001818,-0.5737976,-0.99667054,10.158114,-0.020529175,0.033070374,0.086976625,77.64586865,12.87814138,4.53
152179001839,0.30496216,-0.56273043,8.864553,-0.017596435,-0.001992798,-0.008674622,77.64586865,12.87814138,4.53
152179001860,-0.5015381,-1.0001404,10.2452135,0.011231994,0.029031372,-0.046298217,77.64586865,12.87814138,4.53
152179001882,0.10205231,-1.0774276,10.14651,-0.19595642,-0.03179779,-0.043367006,77.64586865,12.87814138,4.53
152179001903,-0.18149719,-0.69996184,9.82001,0.17701416,-0.024708558,-0.034199525,77.64582769,12.87815714,4.18
152179001924,0.12550354,-0.9419937,11.950699,0.13425598,2.1057129E-4,-0.03261566,77.64582769,12.87815714,4.18
152179001945,0.20135498,-1.2052033,8.371394,-0.022120666,-0.06172638,-0.063035585,77.64582769,12.87815714,4.18
152179001967,-0.7165283,-1.1190628,9.722501,-0.07855377,-0.018850708,0.057658385,77.64582769,12.87815714,4.18
152179001988,0.27983856,-1.214415,8.717997,-0.15319824,-0.027397156,0.031636048,77.64578731,12.87817249,4.03
152179002009,-0.3158554,-0.68225557,9.921824,0.04702606,0.058963012,0.119715884,77.64578731,12.87817249,4.03
152179002030,0.6344528,-1.0960922,9.852312,0.09516144,0.010588074,-0.12082215,77.64578731,12.87817249,4.03
152179002052,0.15062562,-0.6640686,9.318115,-0.021385193,-0.09129181,-0.123875424,77.64578731,12.87817249,4.03
152179002073,-0.6346954,-1.0635498,10.160388,-0.017356873,-0.101672366,-0.003666687,77.64578731,12.87817249,4.03
152179002094,-0.8736206,-1.1829498,9.742842,-0.009417725,0.0037490844,0.21183625,77.64575006,12.87818779,3.94
152179002115,0.29539338,-1.3577454,9.097258,-0.06048279,0.08865204,0.15673523,77.64575006,12.87818779,3.94
152179002137,0.6946365,-0.768634,14.919115,0.09444122,0.060185242,-0.038975526,77.64575006,12.87818779,3.94
152179002158,-0.036135864,-1.0201187,8.461962,0.29223022,-0.05000458,-0.03933563,77.64575006,12.87818779,3.94
152179002179,-0.8096115,-0.90562135,12.798117,-0.48122865,0.03746643,0.04288025,77.64575006,12.87818779,3.94
152179002200,-0.02033844,-0.3893692,8.154602,0.02382202,-0.07675781,-0.1214325,77.64571033,12.87820286,4.06
152179002222,-0.3700531,-0.8851654,12.0927105,0.07047882,0.02696228,0.0980957,77.64571033,12.87820286,4.06
152179002243,0.10169373,-0.7788025,8.772311,-0.028346252,0.035021972,0.046299744,77.64571033,12.87820286,4.06
152179002264,-0.39984283,-0.8511871,10.512613,0.11202087,0.10661163,0.037135314,77.64571033,12.87820286,4.06
152179002285,0.5933014,-1.1455033,8.90069,-0.03861084,0.03110962,-0.10054169,77.64571033,12.87820286,4.06
152179002307,0.4066574,-1.4645859,9.814984,-0.058886718,-0.1066803,-0.28416902,77.64567548,12.87821582,3.19
152179002328,-0.37268525,-1.861914,10.787546,-0.21294251,-0.16154023,-0.08991394,77.64567548,12.87821582,3.19
152179002349,-0.8638092,0.62745667,7.8161407,0.4729187,-0.060014345,0.11092377,77.64567548,12.87821582,3.19
152179002370,0.08374634,-1.6082764,11.622762,-0.06279449,0.10086975,0.16027527,77.64567548,12.87821582,3.19
152179002392,0.82253265,-0.07579346,6.845735,-0.10372467,-0.07076721,0.06828918,77.64564146,12.87822875,3.69
152179002413,-0.2908493,0.07675171,10.284935,0.010011291,-0.010784912,-0.012336731,77.64564146,12.87822875,3.69
152179002434,-0.73351896,-0.3837494,9.833292,-0.10176849,-0.033262633,0.1324234,77.64564146,12.87822875,3.69
152179002455,0.12813416,0.025660705,9.415983,0.18715668,0.07937012,0.19387054,77.64564146,12.87822875,3.69
152179002477,1.3276565,-0.8318054,8.556598,-0.06743927,0.1712387,0.08037567,77.64564146,12.87822875,3.69
152179002498,0.47999877,-0.69936067,6.041026,-0.10518646,0.07264862,-0.12521973,77.64560679,12.87823895,3.43
152179002519,-0.470311,0.1804779,12.744635,0.011845398,0.015962219,-0.17592926,77.64560679,12.87823895,3.43
152179002541,-0.11079101,-1.2533004,8.929881,0.16174622,-0.12647705,-0.25056916,77.64560679,12.87823895,3.43
152179002562,-1.1551377,-0.6765091,10.278354,-0.092112735,-0.09959869,0.05142822,77.64560679,12.87823895,3.43
152179002583,-0.36574402,-0.9442673,8.642024,-0.011003112,0.034902953,0.11800537,77.64560679,12.87823895,3.43
152179002604,0.14751434,-0.66275024,11.406691,0.03420105,0.053833008,-0.0011016845,77.64556986,12.87825169,4.04
152179002626,-0.16211395,-0.7241287,8.115004,0.099069215,0.02842102,-0.09553375,77.64556986,12.87825169,4.04
152179002647,0.010289001,-0.9958313,11.116086,-0.14354248,-0.020195007,-0.13560486,77.64556986,12.87825169,4.04
152179002668,-0.359404,-0.31507415,8.610316,9.719849E-4,-0.11352386,-0.14989929,77.64556986,12.87825169,4.04
152179002689,-0.93188477,-0.84855497,11.021685,0.07695923,-0.08481598,0.014782715,77.64553125,12.87826952,4.02
152179002711,-0.6723877,-1.1739792,9.226828,-0.14330597,-0.051341247,0.13669892,77.64553125,12.87826952,4.02
152179002732,-0.3671814,-0.9525238,9.170479,0.024797058,0.07215881,0.11898346,77.64553125,12.87826952,4.02
152179002753,-0.30317384,-1.0812546,10.498255,0.02418213,0.13434753,0.06804657,77.64553125,12.87826952,4.02
152179002774,0.694516,-1.1529205,9.197996,0.009033203,0.05090027,-0.12949982,77.64553125,12.87826952,4.02
152179002795,0.30640107,-0.7886139,9.582522,0.06962738,-0.08933868,-0.2709732,77.64549202,12.87828339,3.97
152179002817,-0.9993637,-1.165245,9.4999695,-0.0072158813,-0.17741852,-0.12082062,77.64549202,12.87828339,3.97
152179002838,-1.7235504,-1.0899872,9.712812,-0.057902526,-0.01091156,0.25838012,77.64549202,12.87828339,3.97
152179002859,0.844426,-0.89306337,10.09686,-0.008071899,0.097328186,0.19790955,77.64549202,12.87828339,3.97
152179002880,0.636969,-0.8030914,10.183601,0.124484256,-0.0074890135,-0.17787628,77.64549202,12.87828339,3.97
152179002902,-0.7265808,-0.9562286,10.254187,0.0028076172,-0.054637145,-0.112637326,77.64545401,12.87829588,3.69
152179002923,-0.5083588,-1.165123,9.625351,-0.08160858,-0.02263031,0.078912355,77.64545401,12.87829588,3.69
152179002944,-0.22600403,-1.1685928,9.044256,-0.034457397,0.044303894,0.056433104,77.64545401,12.87829588,3.69
152179002966,0.17958069,-1.0810165,9.242742,-0.11018982,0.009362793,-0.024798583,77.64545401,12.87829588,3.69
152179002987,0.2169098,-0.3160309,12.211876,0.21490021,-0.008711243,-0.08087464,77.64541911,12.87830757,3.55
152179003008,-0.3766327,-1.109732,9.627505,0.3302185,-0.04376831,-0.028341675,77.64541911,12.87830757,3.55
152179003029,0.36323088,-0.5931183,11.125056,-0.27292633,-0.041815184,-0.005741882,77.64541911,12.87830757,3.55
152179003051,-0.7747986,0.19328003,8.024676,-0.03995361,-0.0052871704,0.0050109862,77.64541911,12.87830757,3.55
152179003072,-0.24036255,0.10199432,11.4681835,-0.027738953,0.024145508,0.06070862,77.64541911,12.87830757,3.55
152179003093,-0.2062622,0.8697327,8.454425,0.018931579,0.02720337,-0.016368102,77.64538746,12.87831927,3.37
152179003114,-0.6848251,-0.20177308,8.991611,0.019789124,0.06922607,-0.025411988,77.64538746,12.87831927,3.37
152179003136,-0.78041995,0.1697113,9.498532,-0.049360655,0.055419922,-0.09700165,77.64538746,12.87831927,3.37
152179003157,0.14942932,-0.30753937,10.929921,0.0745163,0.044917297,-0.1270523,77.64538746,12.87831927,3.37
152179003178,0.15302125,0.12687989,9.830778,-0.029692078,-0.007244873,-0.19608155,77.64538746,12.87831927,3.37
152179003199,0.0049041747,0.035351563,8.7128525,-0.03250427,-0.06905518,-0.17408752,77.64535327,12.87833248,3.9
152179003221,-0.40259248,-0.083927915,11.0267105,0.0028060912,-0.10558319,-0.13975677,77.64535327,12.87833248,3.9
152179003242,-1.0395645,-0.17162475,10.0494795,0.0010925293,-0.08970489,-0.032740783,77.64535327,12.87833248,3.9
152179003263,0.77180326,-0.56572264,9.264513,0.06889649,-0.036924742,0.050697327,77.64535327,12.87833248,3.9
152179003284,-0.34480745,-0.24986878,10.408763,-0.02419281,-0.04400482,-0.066337585,77.64535327,12.87833248,3.9
152179003306,-0.24610443,-0.45924225,9.919192,0.04898224,-0.13685913,-0.053263854,77.64531498,12.8783496,4.5
152179003327,-0.9092743,-1.2263794,9.342761,0.040309142,-0.11144714,0.08319092,77.64531498,12.8783496,4.5
152179003348,-0.1348404,-0.79172516,9.322304,-0.081732176,-0.070036314,0.15648957,77.64531498,12.8783496,4.5
152179003369,-0.62022245,-0.6765137,10.248207,0.020640563,0.011567688,0.215625,77.64531498,12.8783496,4.5
152179003391,0.3510254,-1.1743362,9.387983,0.11336517,0.056401063,0.12790528,77.64527338,12.8783682,4.47
152179003412,0.39026794,-0.7736603,9.484533,-0.027247619,0.032333374,0.05069275,77.64527338,12.8783682,4.47
152179003433,0.01854248,-0.93661195,9.214267,-0.06352997,0.010585022,0.08453064,77.64527338,12.8783682,4.47
152179003455,-0.10444794,-1.0022919,10.224996,-0.047891237,0.053955078,0.09430389,77.64527338,12.8783682,4.47
152179003476,-0.026443481,-0.2648224,10.025793,0.050328065,0.040394593,0.04519806,77.64527338,12.8783682,4.47
152179003497,-0.32267302,-0.80105895,10.290799,0.038594056,0.023782348,-0.013314819,77.64523084,12.87838273,4.38
152179003518,0.14141388,-0.46032104,9.109342,-0.06340637,0.0038742064,-0.009155273,77.64523084,12.87838273,4.38
152179003539,-0.3792633,-0.3939209,9.889046,0.004145813,-0.0021148683,0.0051345825,77.64523084,12.87838273,4.38
152179003561,-0.012084961,-0.8485535,9.708862,0.06437378,-0.0335022,-0.016244506,77.64523084,12.87838273,4.38
152179003582,-0.07980194,-0.39152527,10.303362,0.004508972,-0.055128478,0.021507263,77.64523084,12.87838273,4.38
152179003603,0.004544067,-0.93924105,9.185193,0.020515442,-0.051463317,0.049717713,77.64518891,12.87839456,4.21
152179003624,-0.6995438,-0.3222534,9.581205,0.0067092897,0.008511352,0.119348146,77.64518891,12.87839456,4.21
152179003646,0.22851563,-0.49334106,11.227707,-0.04838104,0.072035216,0.08135681,77.64518891,12.87839456,4.21
152179003667,-0.09726868,-0.10677795,11.391375,0.0472702,0.06372986,0.01905365,77.64518891,12.87839456,4.21
152179003688,0.04941101,-0.4487137,12.69989,0.037493896,0.003503418,-0.10115357,77.64514581,12.87840406,4.59
152179003709,-0.4532013,-0.2636307,10.8589735,-0.1042099,-0.04095917,-0.03126831,77.64514581,12.87840406,4.59
152179003731,0.48346862,-0.14709625,8.6224,0.058390807,0.012419129,0.067425534,77.64514581,12.87840406,4.59
152179003752,-0.5407791,-0.60747683,10.200231,-0.016986083,0.087675475,-0.0013381958,77.64514581,12.87840406,4.59
152179003773,0.16199645,-0.09649048,10.310061,0.10603638,0.009126281,-0.07903747,77.64514581,12.87840406,4.59
152179003794,-0.1818573,-0.87332153,10.282663,-0.05680847,-0.049142458,-0.14146881,77.64510081,12.87841377,4.79
152179003816,-0.52558595,0.006881714,9.150618,0.05460205,-0.1322174,-0.054484557,77.64510081,12.87841377,4.79
152179003837,-0.552626,-0.6196823,9.891437,-0.03542938,-0.022389222,0.07109833,77.64510081,12.87841377,4.79
152179003858,-0.10731812,-0.6809387,9.749542,-0.0019577027,0.037339784,0.08013,77.64510081,12.87841377,4.79
152179003879,0.34337005,-1.5251251,8.562101,-0.041178893,0.07545929,0.0058654784,77.64510081,12.87841377,4.79
152179003901,0.004664612,-1.0325623,9.084218,-0.095652774,0.029763794,-0.07158508,77.64504187,12.8784289,5.05
152179003922,0.16438599,-0.42263183,9.70886,0.064497374,5.7525636E-4,-0.084538266,77.64504187,12.8784289,5.05
152179003943,-0.2781662,-1.1520859,10.38711,0.011964416,-0.07577362,-0.12619781,77.64504187,12.8784289,5.05
152179003964,-0.29491577,-0.47886354,10.223559,0.045802306,-0.10216217,-0.034570314,77.64504187,12.8784289,5.05
152179003986,-0.5124237,-1.060199,9.151693,-0.05229187,-0.02519684,0.103466794,77.64504187,12.8784289,5.05
152179004007,-0.36574402,-0.4579254,9.527847,-0.041174315,0.037950136,0.06913757,77.64499401,12.87844136,4.96
152179004028,-0.12730102,-0.2572876,10.844137,-0.01784668,0.05762024,0.023452759,77.64499401,12.87844136,4.96
152179004050,0.15649109,-0.31902617,10.767328,-0.027001953,0.014743042,-0.059861757,77.64499401,12.87844136,4.96
152179004071,-1.0408783,0.0046096803,11.085455,0.018688966,-0.0024795532,-0.030783081,77.64499401,12.87844136,4.96
152179004092,-0.81822664,-0.26506346,11.531715,-0.026637267,-0.0041885376,-0.03884735,77.64495043,12.87845408,4.86
152179004113,0.36861116,-0.54011995,9.001544,0.09430389,0.0037506104,-0.01355896,77.64495043,12.87845408,4.86
152179004135,-0.8762512,-0.33636934,11.183317,-0.043862917,0.04381714,8.5601804E-4,77.64495043,12.87845408,4.86
152179004156,0.28223267,-0.35407716,9.094862,0.044218443,0.025733948,-0.04520111,77.64495043,12.87845408,4.86
152179004177,-0.039964296,-0.7687546,9.313448,0.029437255,0.012786865,-0.091378786,77.64495043,12.87845408,4.86
152179004198,-0.569133,-0.116947934,10.140289,-0.082344055,-0.087869264,-0.11459045,77.64490198,12.87846553,5.07
152179004220,-0.5364731,-0.661557,9.901125,0.12435913,-0.034973145,-0.0145401005,77.64490198,12.87846553,5.07
152179004241,-0.5206787,-1.7256439,10.721144,-0.06951294,0.04772339,0.053627014,77.64490198,12.87846553,5.07
152179004262,0.20039673,-0.59850156,11.072413,-0.096028134,0.050782777,-0.07060852,77.64490198,12.87846553,5.07
152179004283,-0.26991272,-0.40959015,10.765894,0.05105591,0.020973206,-0.10689545,77.64490198,12.87846553,5.07
152179004305,0.11940308,-0.8364685,9.957835,-0.096272275,-0.061724853,-0.15051422,77.64485224,12.87847821,5.27
152179004326,-0.5563339,-0.38003844,10.791853,0.21318512,-0.13685608,-0.123873904,77.64485224,12.87847821,5.27
152179004347,-0.3807022,-2.237947,8.673848,0.048620604,-0.104969785,-0.0011001587,77.64485224,12.87847821,5.27
152179004368,0.06998901,-0.5398819,8.586151,-0.08771972,-0.054273985,0.1501358,77.64485224,12.87847821,5.27
152179004390,-0.58899534,-1.1474183,9.647009,0.053746033,0.06605224,0.06498261,77.64480945,12.87849611,5.06
152179004411,0.28079528,-1.0259842,9.822879,-0.15991822,0.037583925,0.015756225,77.64480945,12.87849611,5.06
152179004432,0.30460662,-0.8645859,9.807088,0.043000795,0.014131164,-0.06999664,77.64480945,12.87849611,5.06
152179004453,0.13925782,-1.4643478,9.298134,0.15428773,0.0066833496,-0.043244936,77.64480945,12.87849611,5.06
152179004475,-0.17420197,-0.80548096,8.669779,-0.11776886,-0.048413087,-0.059980772,77.64480945,12.87849611,5.06
152179004496,-0.24741821,-0.84639895,10.06635,-0.038117982,-0.066734314,0.00806427,77.6447684,12.87851304,4.77
152179004517,-0.7298126,0.2830124,10.556399,0.15795441,0.025004577,0.0723175,77.6447684,12.87851304,4.77
152179004538,-0.13854523,-0.5207367,10.0501995,-0.029815674,0.059822083,-0.0037841797,77.6447684,12.87851304,4.77
152179004560,0.042111207,-1.1578262,8.887049,-0.0132019045,-0.018351745,-0.07659607,77.6447684,12.87851304,4.77
152179004581,-0.3747177,-0.8613556,9.834126,-0.02028656,-0.065760806,-0.061325073,77.6447684,12.87851304,4.77
152179004602,-0.4164734,-1.2148972,9.571276,-0.03286896,-0.07760773,0.019544983,77.64472288,12.87852724,5.13
152179004623,-0.3358322,-0.782872,9.543161,0.036276244,0.023291016,0.11800537,77.64472288,12.87852724,5.13
152179004645,-0.27673188,-0.6511444,10.214348,-0.041296385,0.11858368,0.108357236,77.64472288,12.87852724,5.13
152179004666,0.52761996,-1.0390259,9.9993515,0.034684755,0.06152954,-0.11911011,77.64472288,12.87852724,5.13
152179004687,0.054434203,-0.91961825,9.78256,0.033709716,-0.046699524,-0.13951263,77.64467558,12.87853874,4.98
152179004708,-0.5907898,-0.774855,9.8055315,0.0053665163,-0.058059692,-0.02772827,77.64467558,12.87853874,4.98
152179004730,-0.27541503,-0.6434906,9.986432,0.0013320923,-0.023606872,0.017964173,77.64467558,12.87853874,4.98
152179004751,-0.49268493,-0.27068788,9.897776,0.065719604,-0.0076095583,-0.01038208,77.64467558,12.87853874,4.98
152179004772,-0.10384979,-1.8272202,9.988344,0.003540039,0.017678833,0.017225647,77.64467558,12.87853874,4.98
152179004793,-0.009333801,-1.2296112,9.669141,-0.082704164,-0.016036987,-0.026631165,77.64462984,12.87855556,4.85
152179004815,-0.20937195,-1.3273575,9.311297,-0.017353822,-0.023982238,-0.06767883,77.64462984,12.87855556,4.85
152179004836,-0.17085114,-1.3000778,10.789342,-0.17848817,-0.056837462,-0.021250915,77.64462984,12.87855556,4.85
152179004857,-0.3799835,-0.6182434,8.9700775,0.1826355,-0.020314027,0.048005678,77.64462984,12.87855556,4.85
152179004878,-0.2373703,-1.3273575,11.146948,-2.471924E-4,0.027198792,0.032489013,77.64462984,12.87855556,4.85
152179004900,0.26966858,-1.0062393,8.505511,-0.2122055,-0.02886505,0.0019561767,77.64459026,12.87856751,4.34
152179004921,-0.4528427,-0.21624908,11.296382,0.09846649,0.020123292,-0.034571838,77.64459026,12.87856751,4.34
152179004942,-0.5351593,-3.1317856,9.896576,0.06486969,-0.0026031495,0.016859436,77.64459026,12.87856751,4.34
152179004963,-0.3219574,0.24245301,10.289599,0.06731109,-0.04646454,0.016607666,77.64459026,12.87856751,4.34
152179004985,0.032061767,-0.8030914,10.559751,0.22588806,0.064093016,0.044825744,77.64459026,12.87856751,4.34
152179005006,-0.2695511,0.04779663,9.651555,-0.002330017,0.055664063,0.028829956,77.64455322,12.87858056,4.06
152179005027,0.12394867,-0.45433807,9.091515,0.05557556,0.059210204,-0.1048172,77.64455322,12.87858056,4.06
152179005049,0.28294832,0.22462769,11.508743,-0.09516601,-0.03314514,-0.17214051,77.64455322,12.87858056,4.06
152179005070,-0.9031693,0.52839357,10.714928,-0.013446045,-0.16667175,-0.21734467,77.64455322,12.87858056,4.06
152179005091,-1.565628,-0.029371643,12.104558,-0.015522766,-0.16178589,0.0394577,77.64451865,12.87859587,4.14
152179005112,-0.99266356,0.365802,10.677839,0.049468994,-0.003211975,0.24641113,77.64451865,12.87859587,4.14
152179005134,1.1658996,-0.88444674,8.83931,-0.049357604,0.08523254,0.12313843,77.64451865,12.87859587,4.14
152179005155,-0.95916593,0.5554352,10.375145,0.034199525,0.08009796,-0.023086548,77.64451865,12.87859587,4.14
152179005176,1.1723602,-1.1399994,8.77578,-0.019551087,0.071057126,-0.061817933,77.64451865,12.87859587,4.14
152179005197,-1.0297546,0.34977263,10.940208,-0.09406586,0.010705566,-0.103105165,77.64447978,12.87861541,4.59
152179005219,0.33248138,-0.5349747,9.273252,0.07011566,-0.012615967,-0.07610931,77.64447978,12.87861541,4.59
152179005240,0.039239503,-0.30215454,9.890597,0.008665467,-0.053419493,-0.07940674,77.64447978,12.87861541,4.59
152179005261,-0.8185867,-0.18753815,10.513928,0.03651886,-0.07956085,-0.0566803,77.64447978,12.87861541,4.59
152179005282,-0.9830917,-0.1811966,10.759432,0.029675294,-0.020805359,0.064007565,77.64447978,12.87861541,4.59
152179005304,-0.21092835,-0.13070527,9.414546,-0.028596496,0.060797118,0.0665741,77.6444387,12.87863286,4.9
152179005325,0.39696807,-0.64420474,9.269658,-0.009779358,0.07203674,-0.04507599,77.6444387,12.87863286,4.9
152179005346,0.59293973,-0.6166855,9.946591,-0.005380249,-0.031065369,-0.14733581,77.6444387,12.87863286,4.9
152179005367,-0.626561,-0.48891297,9.845973,0.04445801,-0.111572266,-0.10200653,77.6444387,12.87863286,4.9
152179005389,-0.43130952,-0.46642,10.457219,-0.008439636,-0.105703734,0.034202576,77.6443962,12.87865165,5.06
152179005410,-0.81906736,-0.610109,9.677399,-0.027127076,-0.056718446,0.066934206,77.6443962,12.87865165,5.06
152179005431,-0.35964203,-0.31722412,9.929957,-0.0039154054,0.026957702,0.10420074,77.6443962,12.87865165,5.06
152179005452,-0.042115785,-0.5151154,9.996839,0.079524234,0.024394225,0.013807679,77.6443962,12.87865165,5.06
152179005474,-0.21092682,-0.57218325,10.251315,-0.076724246,-0.029962158,-0.019909669,77.6443962,12.87865165,5.06
152179005495,-0.7015747,-0.20619965,8.951775,-0.04984436,-0.009321595,0.06376495,77.6443467,12.87867486,5.46
152179005516,-0.3600006,-0.49669343,9.981885,0.05191345,0.07203674,0.07024078,77.6443467,12.87867486,5.46
152179005537,0.16881256,-0.21708831,9.033252,0.057043456,0.06421814,-0.023086548,77.6443467,12.87867486,5.46
152179005559,-0.09798584,-0.6535385,10.552211,-0.18667145,0.03453369,-0.0613266,77.6443467,12.87867486,5.46
152179005580,-0.46983337,-0.3804001,8.879152,0.3145813,2.0751954E-4,-0.057293702,77.6443467,12.87867486,5.46
152179005601,-0.46768036,-1.0300506,10.669821,-0.19828033,0.043211363,-0.017344665,77.64429771,12.87869887,5.7
152179005622,-0.17551574,-0.06741943,8.5488205,0.013067627,-0.06441498,-0.09993134,77.64429771,12.87869887,5.7
152179005644,-0.6343384,-0.8702118,10.053429,-0.04472046,-0.02421875,-0.01673584,77.64429771,12.87869887,5.7
152179005665,-0.28546447,-0.09302215,9.507507,0.020881653,-0.013102722,0.032614134,77.64429771,12.87869887,5.7
152179005686,-0.061375428,-1.2098694,9.929001,0.09272003,0.06458588,-0.004638672,77.64429771,12.87869887,5.7
152179005707,0.14691468,-0.5597412,8.866585,-0.11336975,0.09708099,-0.017590333,77.64424791,12.87872113,5.86
152179005729,0.24729462,-0.3147171,10.355043,0.09846191,0.019023132,-0.17848969,77.64424791,12.87872113,5.86
152179005750,-0.37208557,-0.6349945,10.790896,0.07500152,-0.08664703,-0.17115478,77.64424791,12.87872113,5.86
152179005771,-0.37029114,-0.8066772,9.895386,0.020394897,-0.19537964,-0.09076996,77.64424791,12.87872113,5.86
152179005793,-0.8693115,-0.35084993,9.710057,-0.05289917,-0.081517026,0.10126801,77.64420051,12.87874318,6.03
152179005814,-0.52570647,-0.93374175,11.190381,-0.03299408,0.053102113,0.11947479,77.64420051,12.87874318,6.03
152179005835,0.34289092,-0.8438889,9.218694,0.044096373,0.06910553,-0.04470978,77.64420051,12.87874318,6.03
152179005856,0.22600098,-1.1602204,8.215622,0.008908081,0.039904784,-0.04483185,77.64420051,12.87874318,6.03
152179005878,0.089250185,-0.6786636,9.506551,-0.048379518,0.015718078,-0.070611574,77.64420051,12.87874318,6.03
152179005899,0.11940155,-1.177089,10.498495,0.010375977,-0.07577057,-0.1360962,77.64415469,12.87877224,5.89
152179005920,-0.9279358,-1.251387,9.643778,-0.011613464,-0.037664793,0.027726745,77.64415469,12.87877224,5.89
152179005941,-0.07621155,-0.9622162,9.737102,-0.028225709,0.041247558,0.038356017,77.64415469,12.87877224,5.89
152179005963,0.10887146,-1.1562729,9.554766,0.012698364,0.059820555,-0.046176147,77.64415469,12.87877224,5.89
152179005984,-0.5485565,-0.73908234,10.247846,0.05093689,0.08242188,-0.041656494,77.64415469,12.87877224,5.89
152179006005,-0.30006257,-1.5433105,9.581685,0.014160156,0.09072723,-0.08490448,77.64411117,12.87879406,5.53
152179006026,0.4347748,-0.6414566,9.061725,-0.051675417,0.0059494018,-0.21111146,77.64411117,12.87879406,5.53
152179006047,-0.31812897,-1.0428512,9.95018,-0.08001862,-0.13856964,-0.23737487,77.64411117,12.87879406,5.53
152179006069,-0.717247,-0.37872466,11.583399,0.29479066,-0.18022919,-0.10127258,77.64411117,12.87879406,5.53
152179006090,-1.3774292,-2.1570678,9.320032,0.046905518,0.012792969,0.13034515,77.64407488,12.87882686,5.23
152179006111,0.34145355,-0.3571884,10.519793,-0.24568787,0.07667999,0.06963043,77.64407488,12.87882686,5.23
152179006133,0.29192048,-0.865065,9.242264,0.2587494,0.055419922,-0.14757995,77.64407488,12.87882686,5.23
152179006154,0.4673172,-1.1992203,10.042183,-0.25154266,-0.053422548,-0.1919281,77.64407488,12.87882686,5.23
152179006175,-0.4002014,-0.5676376,8.342321,-0.0020843507,-0.1566513,-0.19632569,77.64407488,12.87882686,5.23
152179006196,-0.34253234,-0.531984,11.00338,0.0048797606,-0.11560211,0.040919494,77.64404066,12.87885422,4.96
152179006218,-0.18293,-0.8615967,9.443617,0.0434906,-0.0054107667,0.12692566,77.64404066,12.87885422,4.96
152179006239,-0.27625275,-1.1670411,10.742561,0.068408206,0.11919403,0.08526764,77.64404066,12.87885422,4.96
152179006260,0.22420654,-0.947377,9.605372,-0.12485657,0.03196106,-0.105184935,77.64404066,12.87885422,4.96
152179006281,0.29993898,-0.5757736,9.177538,0.06156311,-0.03374939,-0.12974243,77.64404066,12.87885422,4.96
152179006303,-0.5027313,-1.1618912,10.451714,0.021006774,-0.052926637,-0.07769623,77.64400875,12.87888116,4.64
152179006324,-0.031825256,0.0046066283,10.246648,0.04764099,-0.055865478,-0.034814455,77.64400875,12.87888116,4.64
152179006345,-0.6139984,-1.015094,10.069341,0.02772827,-0.062950134,-0.012210083,77.64400875,12.87888116,4.64
152179006366,-0.40642244,-0.23371887,8.9836,-0.0039154054,-0.054882813,0.057658385,77.64400875,12.87888116,4.64
152179006388,-0.6483337,-1.133899,11.036043,-0.054484557,0.055667114,0.1112854,77.64400875,12.87888116,4.64
152179006409,0.73016816,-0.81421816,8.562578,0.002067566,0.058473207,0.0054992675,77.64397723,12.87890732,4.65
152179006430,0.27840272,-0.902153,10.280386,0.03908539,0.04235077,-0.07305603,77.64397723,12.87890732,4.65
152179006451,0.21439667,-0.83156586,10.166611,-0.036042787,-0.030451965,-0.112271115,77.64397723,12.87890732,4.65
152179006473,-0.36957246,-0.83647,9.085176,0.10566559,-0.046697997,-0.043244936,77.64397723,12.87890732,4.65
152179006494,0.18364868,-0.85955966,10.97682,-0.0042800903,-0.025691222,-0.045932006,77.64394728,12.87893338,4.51
152179006515,-0.5337204,-1.2505493,8.7287655,0.02735443,-0.021658326,0.021136474,77.64394728,12.87893338,4.51
152179006536,-0.33379975,-1.1439483,9.973269,-0.054243468,0.08974914,0.094184875,77.64394728,12.87893338,4.51
152179006558,0.74775696,-0.91986084,9.605135,-0.059620667,0.07753296,-0.061451722,77.64394728,12.87893338,4.51
152179006579,0.22169343,-1.109732,9.768328,0.021005249,-0.008712769,-0.20818023,77.64394728,12.87893338,4.51
152179006600,0.13280335,-0.9654449,9.280787,-0.02565918,-0.18316498,-0.24616852,77.64391674,12.87895233,4.24
152179006621,-1.0859848,-1.0609192,10.417499,-0.06328583,-0.17057648,0.0078140255,77.64391674,12.87895233,4.24
152179006643,-0.22803955,-0.62458646,8.144316,-0.011120605,-0.08652496,0.20621185,77.64391674,12.87895233,4.24
152179006664,-0.74105835,-2.6563325,8.704355,-0.1593155,-0.040104676,0.1634552,77.64391674,12.87895233,4.24
152179006685,0.22719422,-0.91052705,4.9646134,0.42356262,0.03954468,0.15587768,77.64391674,12.87895233,4.24
152179006706,-0.14967194,-1.243132,11.875086,-0.15870209,0.0063171387,0.030900573,77.6438928,12.87897972,3.88
152179006728,0.5375473,-1.0426102,7.5848756,-0.0042770384,-0.07601929,0.07598267,77.6438928,12.87897972,3.88
152179006749,0.120838925,-0.9558716,11.213231,0.009640503,-0.061724853,0.10701294,77.6438928,12.87897972,3.88
152179006770,-0.22372742,-0.60628206,8.535662,-0.03689728,-0.09116669,0.18336487,77.6438928,12.87897972,3.88
152179006791,-0.57678986,-0.59909976,9.662802,0.051423647,-0.009321595,0.28623962,77.64386622,12.87900424,3.65
152179006813,-0.23234406,-0.29377747,9.570078,-0.024804687,0.08510895,0.36332855,77.64386622,12.87900424,3.65
152179006834,0.6662796,-0.4454834,10.13682,0.05215607,0.09989319,0.13303375,77.64386622,12.87900424,3.65
152179006855,0.35066527,-0.7216156,9.362501,-0.0475235,0.01328125,-0.037380982,77.64386622,12.87900424,3.65
152179006876,0.43309784,-0.38996887,10.248204,-0.045814514,-0.10802765,-0.03053894,77.64386622,12.87900424,3.65
152179006898,-1.2050278,-0.09493561,10.776421,0.017337035,-0.04083862,0.17200622,77.64383667,12.87902438,3.88
152179006919,0.42986757,-0.778685,9.673929,0.06828155,0.033183288,0.25935975,77.64383667,12.87902438,3.88
152179006940,-0.18568268,-0.4881958,10.771396,-0.006114197,0.06616974,0.06999359,77.64383667,12.87902438,3.88
152179006962,0.011126709,0.036071777,9.38978,-0.008317566,0.05579071,0.09272003,77.64383667,12.87902438,3.88
152179006983,-0.23928222,-0.8948547,9.347189,0.020759583,0.05908661,0.021987915,77.64383667,12.87902438,3.88
152179007004,-0.45236358,-1.1657242,10.972394,-0.2076889,0.102702335,0.11898498,77.64380594,12.87904312,3.99
152179007025,-0.24861602,-0.7357315,8.843859,0.07085724,0.13458863,0.055700682,77.64380594,12.87904312,3.99
152179007046,0.28510436,-0.9053818,10.326332,0.03530121,0.23733369,-0.024186706,77.64380594,12.87904312,3.99
152179007068,0.6203369,-1.0174881,9.761264,-0.017353822,0.09463654,-0.34549713,77.64380594,12.87904312,3.99
152179007089,-0.7487167,-1.0015732,9.64677,0.12167206,0.0309906,-0.28514403,77.64377506,12.87905294,4.15
152179007110,-0.06114044,-0.7232895,10.694824,0.0023132325,-0.0050445558,-0.1877716,77.64377506,12.87905294,4.15
152179007131,-0.9613174,-1.0136582,10.61347,0.040802002,0.004603577,-0.22271729,77.64377506,12.87905294,4.15
152179007153,0.45726776,-1.2460037,9.996721,0.052279662,-0.12696381,-0.31752166,77.64377506,12.87905294,4.15
152179007174,-0.39481506,-0.99942017,10.451714,-0.06414185,-0.26196137,-0.3200882,77.64377506,12.87905294,4.15
152179007195,-1.5874023,-0.5825928,10.70667,0.2552124,-0.21090087,-0.0039123534,77.64374191,12.87906948,4.1
152179007216,-0.5769089,-1.5183045,7.26591,-0.18777618,-0.05146637,0.25056154,77.64374191,12.87906948,4.1
152179007238,-0.124427795,-0.28456727,11.753293,-0.23970184,0.01254425,0.17396088,77.64374191,12.87906948,4.1
152179007259,-0.3909912,0.107617185,7.583679,0.47169954,0.0072891237,-9.780884E-4,77.64374191,12.87906948,4.1
152179007280,0.1670166,-1.35643,12.116402,-0.24483033,0.0862091,0.08599548,77.64374191,12.87906948,4.1
152179007302,0.26607972,0.69386137,7.7795305,-0.010264588,-0.024957275,-0.07317658,77.64371258,12.87908992,3.9
152179007323,-0.48586425,-0.46666107,10.997876,0.11825409,-0.0778534,-0.12826996,77.64371258,12.87908992,3.9
152179007344,-0.51254576,0.18179627,9.702761,-0.07770538,-0.13380738,0.016004944,77.64371258,12.87908992,3.9
152179007365,-0.32889557,-1.4168503,7.738733,0.046543885,-0.055497743,0.15709992,77.64371258,12.87908992,3.9
152179007387,0.016748047,-0.94845426,9.970159,-0.14342651,0.072769165,0.2706024,77.64368244,12.87910824,3.95
152179007408,-0.4441101,0.5047089,8.190618,0.22307587,0.21314545,0.18654785,77.64368244,12.87910824,3.95
152179007429,1.1399399,-0.55555266,10.337936,-0.016984558,0.20996857,-0.09785767,77.64368244,12.87910824,3.95
152179007450,-0.038885497,-0.124845885,9.200867,-0.12301941,-0.014573669,-0.30041504,77.64368244,12.87910824,3.95
152179007472,-0.2602188,-1.0115067,9.862963,0.07317047,-0.20075683,-0.28941804,77.64368244,12.87910824,3.95
152179007493,-1.9423752,-1.1636887,9.437039,0.021736145,-0.16752625,0.054237366,77.64364919,12.87912873,4.42
152179007514,-0.6136429,-0.8060791,9.3957615,0.007563782,0.053346254,0.28904876,77.64364919,12.87912873,4.42
152179007535,1.0057052,-0.9137589,10.169123,-0.016622925,0.12005005,0.015145874,77.64364919,12.87912873,4.42
152179007557,0.6340988,-0.9769287,9.610519,-0.061941527,-0.0269104,-0.24153137,77.64364919,12.87912873,4.42
152179007578,-0.7529022,-0.58474576,9.840231,0.062420655,-0.16593322,-0.19070587,77.64364919,12.87912873,4.42
152179007599,-0.77084655,-0.84795535,9.828024,0.017341614,-0.08078613,0.1501358,77.64361507,12.87915028,4.32
152179007620,-0.5816971,-0.972023,9.364777,-0.095658876,0.08352051,0.23358306,77.64361507,12.87915028,4.32
152179007642,-0.23605499,-0.77904356,12.29359,-0.15711212,0.11858368,0.06352234,77.64361507,12.87915028,4.32
152179007663,0.30986938,-0.13537292,8.225194,0.31104127,0.019381713,-0.17054443,77.64361507,12.87915028,4.32
152179007684,-0.02931366,-1.3539184,9.66053,0.11703186,-0.08164215,-0.19265747,77.64361507,12.87915028,4.32
152179007705,-0.5938965,-1.258084,7.6729293,-0.3293747,-0.14431457,-0.018811036,77.64357836,12.87916847,4.09
152179007727,-0.7385483,-0.21529388,9.517916,0.024546813,-0.08139191,0.087710574,77.64357836,12.87916847,4.09
152179007748,-0.396492,-0.5060196,11.198276,-0.010145569,0.04211273,0.17701416,77.64357836,12.87916847,4.09
152179007769,-0.37495726,-0.093739316,9.387865,0.06291046,0.06959534,0.120205685,77.64357836,12.87916847,4.09
152179007790,0.00801239,-0.22809753,10.357437,0.063883975,0.08425446,-0.013555909,77.64354512,12.87918572,3.92
152179007812,0.018663025,-0.71395874,9.240588,-0.04581604,-0.004675293,-0.10445404,77.64354512,12.87918572,3.92
152179007833,-0.09033203,0.48915252,10.062399,0.0611969,-0.06233368,-0.09760742,77.64354512,12.87918572,3.92
152179007854,-0.18066101,-1.127916,8.774348,-0.02224121,-0.07137451,0.003541565,77.64354512,12.87918572,3.92
152179007875,0.05144348,-0.9134003,8.075043,-0.023335267,-0.049632262,0.044462584,77.64354512,12.87918572,3.92
152179007897,-0.41659394,-1.0631912,9.498174,0.013063049,-0.008094788,0.08123169,77.64351316,12.87920468,4.19
152179007918,0.20530395,-0.7073776,9.5959215,-0.013812256,0.03538666,0.0704834,77.64351316,12.87920468,4.19
152179007939,-0.03278351,-0.85752714,9.77706,-0.0066055297,0.034288026,0.019178772,77.64351316,12.87920468,4.19
152179007960,-0.029193114,-0.8771469,9.909861,8.43811E-4,0.00753479,-0.03701477,77.64351316,12.87920468,4.19
152179007982,-0.32769927,-0.6744766,10.094706,0.0057327272,-0.028250122,-0.05252838,77.64351316,12.87920468,4.19
152179008003,-0.48335114,-1.2262604,9.946828,0.004510498,-0.028494263,0.008554077,77.64347847,12.87922325,4.3
152179008024,-0.38919526,-0.94019777,9.691275,-0.0068496703,0.022555541,0.052648924,77.64347847,12.87922325,4.3
152179008046,0.170607,-0.7977066,9.614466,-0.011247253,0.025979614,-0.0015899658,77.64347847,12.87922325,4.3
152179008067,-0.16367035,-0.98925173,9.187465,-0.015037537,-0.019824218,-0.08746948,77.64347847,12.87922325,4.3
152179008088,-0.25842744,-0.75547487,9.658015,0.01892395,-0.07210998,-0.07598724,77.6434435,12.879242,4.21
152179008109,-0.7249085,-0.82163846,9.469103,-0.008926392,-0.04095917,0.048376463,77.6434435,12.879242,4.21
152179008130,-0.2411972,-1.165007,9.443022,-0.030303955,0.033065796,0.12997742,77.6434435,12.879242,4.21
152179008152,0.35401917,-1.0061203,9.471257,0.021740723,-0.007487488,-0.0691452,77.6434435,12.879242,4.21
152179008173,-0.62919617,-0.7135986,10.306829,0.023324585,-0.025805663,0.0040298463,77.6434435,12.879242,4.21
152179008194,-0.29587403,-0.9458206,9.366928,0.04372406,-0.021905517,0.010383606,77.64340853,12.87926058,4.18
152179008215,-0.24813843,-1.0757523,9.861168,-0.01638031,0.023779297,0.120326236,77.64340853,12.87926058,4.18
152179008237,-0.27362213,-0.9973892,9.405573,-0.009657288,0.0030197143,-0.004759216,77.64340853,12.87926058,4.18
152179008258,-0.5842102,-1.384906,10.393808,-0.25362244,0.00912323,0.03236847,77.64340853,12.87926058,4.18
152179008279,-0.24048004,0.0951767,11.009959,0.4162323,0.016819764,-0.031028748,77.64340853,12.87926058,4.18
152179008300,-0.27326202,-3.3363755,10.148066,-0.037017822,0.03808441,-0.061691284,77.64337377,12.87927678,3.88
152179008322,-0.18616334,-0.3175873,8.666788,-0.6126877,-0.12220001,-0.05094452,77.64337377,12.87927678,3.88
152179008343,-0.57774657,0.2127823,8.38635,0.7942337,-0.024226379,-0.08099823,77.64337377,12.87927678,3.88
152179008364,0.060656738,-3.3443863,11.426071,0.08160706,0.0626358,0.16821747,77.64337377,12.87927678,3.88
152179008386,-0.4881363,2.0976105,8.078275,-0.33670196,-0.054396056,0.0679245,77.64337377,12.87927678,3.88
152179008407,-1.3323227,0.40337068,10.439511,0.24983063,0.0022857666,-0.024188232,77.64334046,12.87929185,3.79
152179008428,-0.568895,0.059281923,9.863917,-0.14073181,0.13067932,0.20462342,77.64334046,12.87929185,3.79
152179008450,0.91345674,0.64085996,9.41933,0.042999268,0.12652588,-0.04263916,77.64334046,12.87929185,3.79
152179008471,-0.05252533,0.6958908,11.241467,0.029310608,0.06775971,-0.2614456,77.64334046,12.87929185,3.79
152179008492,-0.06508484,0.12891388,8.881185,-0.02064972,-0.07516174,-0.24214172,77.64330598,12.87930679,4.19
152179008513,-0.37627107,-0.035592653,10.083937,0.02564392,-0.11486664,-0.14586791,77.64330598,12.87930679,4.19
152179008534,-0.73627317,-0.1816742,9.51696,-0.01846161,-0.1074173,-0.041902162,77.64330598,12.87930679,4.19
152179008556,-0.38070068,-0.05796509,9.908068,-0.0061187744,-0.051829528,0.019546509,77.64330598,12.87930679,4.19
152179008577,-0.49998015,-0.17114715,10.019092,-0.012106324,-0.010539246,0.012585449,77.64330598,12.87930679,4.19
152179008598,-0.2120041,-0.8901886,11.456221,-0.031410217,0.002407837,-0.011598205,77.64326634,12.87932664,4.94
152179008620,0.28414613,-0.8516663,9.034447,0.00683136,-0.06038208,-0.09028015,77.64326634,12.87932664,4.94
152179008641,-0.37423858,-0.78227234,8.838593,0.004142761,-0.08860321,-0.022355651,77.64326634,12.87932664,4.94
152179008662,-0.20004272,-1.1693115,10.156917,-0.001963806,-0.038877867,0.067185976,77.64326634,12.87932664,4.94
152179008683,0.34229127,-0.9731003,10.053907,-0.0034255981,-0.016644288,0.043362428,77.64326634,12.87932664,4.94
152179008705,-0.25543517,-0.8667389,9.573786,-0.011488343,-0.043766785,-0.00952301,77.64322609,12.87935089,4.93
152179008726,-0.23126678,-0.89628905,9.827906,0.0057342527,-0.04217682,0.057531737,77.64322609,12.87935089,4.93
152179008747,0.037208557,-0.737883,9.552257,0.0075653074,-0.0038253784,0.07634735,77.64322609,12.87935089,4.93
152179008768,-0.1490738,-1.2951752,9.537417,0.008055115,0.001550293,0.063763425,77.64322609,12.87935089,4.93
152179008789,-0.030270386,-0.28001708,10.090158,0.0028030395,0.00838623,0.049960326,77.64318668,12.87937453,4.82
152179008811,-0.42927092,-0.63104856,9.984756,-0.009294128,0.02915802,0.07659455,77.64318668,12.87937453,4.82
152179008832,0.07321777,-0.2740387,9.817617,-0.015644837,0.023416137,0.020037841,77.64318668,12.87937453,4.82
152179008853,-0.12980957,-0.5999405,9.989659,0.003414917,0.046258546,0.033714294,77.64318668,12.87937453,4.82
152179008874,0.42855224,-1.3311875,8.611397,0.015507507,0.052613832,-0.0029312135,77.64318668,12.87937453,4.82
152179008896,-0.36299285,-0.3915283,8.486728,-0.0036727905,0.010830688,-0.051553346,77.64314711,12.87939563,4.8
152179008917,-0.5349167,-0.25202483,10.451357,0.0064666746,-0.010784912,-0.054360963,77.64314711,12.87939563,4.8
152179008938,-0.20375061,-0.084048465,7.907068,0.02992401,0.007904053,-0.016000366,77.64314711,12.87939563,4.8
152179008960,0.131604,-0.2971298,11.419851,-2.471924E-4,-0.009446716,-0.059005737,77.64314711,12.87939563,4.8
152179008981,-0.29886475,-0.79567415,9.449962,0.094429016,-0.05085907,-0.046418764,77.64314711,12.87939563,4.8
152179009002,-0.26548308,-0.10570069,10.064557,-0.06523895,-0.07149811,0.0051330565,77.64309713,12.87941808,5.09
152179009023,-0.49136505,-0.4348343,9.943121,0.009643555,-0.04107361,0.0135650635,77.64309713,12.87941808,5.09
152179009045,-0.328537,-0.5976654,9.49375,-0.009165955,0.0019180297,0.06974487,77.64309713,12.87941808,5.09
152179009066,0.1012146,-0.25669098,9.404978,-0.015525818,0.0103469845,0.018203735,77.64309713,12.87941808,5.09
152179009087,-0.21368103,-0.14817658,10.011316,0.016850282,-0.0019882203,-0.006349182,77.64305232,12.87944848,5.53
152179009108,-0.12059937,-0.511644,9.678357,0.010374451,-0.011151123,0.0012252808,77.64305232,12.87944848,5.53
152179009129,-0.36526337,-0.37824708,9.874208,-0.015275573,0.010585022,0.027850341,77.64305232,12.87944848,5.53
152179009151,-0.07094727,-0.04660034,10.375384,0.0063446043,-0.004312134,-0.016973877,77.64305232,12.87944848,5.53
152179009172,-0.29802704,-0.4359131,9.825274,-3.768921E-4,-0.012129212,-0.0045166016,77.64305232,12.87944848,5.53
152179009193,-0.18221435,-0.32655793,9.437877,0.0015823364,0.0037460327,0.01576233,77.64299769,12.87947287,5.92
152179009215,-0.021057129,-0.2820526,10.04685,0.005973816,-0.009562683,-0.025042724,77.64299769,12.87947287,5.92
152179009236,-0.14488983,-0.6260208,9.814746,0.011964416,-0.033865355,-0.014414978,77.64299769,12.87947287,5.92
152179009257,-0.03517914,-0.44811553,9.915364,-0.0053848266,-0.019332886,0.016130066,77.64299769,12.87947287,5.92
152179009278,-0.27182618,-0.9180664,9.62679,-0.024316406,0.022317505,0.028344726,77.64299769,12.87947287,5.92
152179009300,-0.18544464,-0.38207245,10.142441,-0.0034286499,0.023294067,4.91333E-4,77.64295235,12.87949296,6.28
152179009321,3.5858154E-4,-0.7926819,9.891075,0.01819458,0.007774353,-0.031150818,77.64295235,12.87949296,6.28
152179009342,0.24203339,-1.0736023,9.234247,-0.011247253,-0.009439087,-0.022718811,77.64295235,12.87949296,6.28
152179009363,-0.3444458,-1.273639,10.272731,0.01013031,-0.030331422,-0.02846222,77.64295235,12.87949296,6.28
152179009384,-0.2591446,-0.5621338,9.836161,-0.0028182983,-0.047795106,-0.01770935,77.64295235,12.87949296,6.28
152179009406,0.0929596,-1.3004395,9.038874,-0.013206482,-0.04584198,0.00904541,77.64289865,12.8795234,6.28
152179009427,-0.77886355,-0.61381835,10.121866,9.6740725E-4,-0.040711977,0.019432068,77.64289865,12.8795234,6.28
152179009448,0.018304443,-0.90634155,9.121663,0.003288269,-0.008091736,0.057409666,77.64289865,12.8795234,6.28
152179009470,-0.70636445,-0.5859421,10.161824,7.2784425E-4,0.056764223,0.07378082,77.64289865,12.8795234,6.28
152179009491,0.25651246,-0.9941589,10.5839205,0.0018203736,0.0515152,-0.019174194,77.64284522,12.87954542,6.2
152179009512,0.265361,-1.4169677,8.11333,-0.002571106,0.05432129,-0.021252442,77.64284522,12.87954542,6.2
152179009533,0.43836364,-1.7076981,7.9905777,0.006462097,0.037342835,-0.058151245,77.64284522,12.87954542,6.2
152179009555,0.25315857,-1.5788437,8.098132,-7.4310304E-4,-0.034362793,-0.10200958,77.64284522,12.87954542,6.2
152179009576,-0.35904235,-0.6811783,8.905714,0.003288269,-0.06526794,-0.050086975,77.64284522,12.87954542,6.2
152179009597,-0.2049469,-1.265384,10.638594,-0.005511475,-0.014083862,0.026390076,77.64279416,12.87957027,6.0
152179009618,-0.44925386,-0.33696747,10.694468,0.01660614,0.008634949,-0.01184845,77.64279416,12.87957027,6.0
152179009640,0.07872162,-1.4194825,10.277756,-0.033114623,0.008148193,-0.03249359,77.64279416,12.87957027,6.0
152179009661,-0.23390198,-1.0933411,9.015663,0.021131897,0.004118347,-0.02748413,77.64279416,12.87957027,6.0
152179009682,0.22468719,-0.8870819,10.99704,0.03456726,-0.03191681,-0.06669922,77.64279416,12.87957027,6.0
152179009703,-0.5142212,-0.111328125,10.652832,-0.020776367,-0.081393436,-0.048866272,77.64275981,12.8796006,5.75
152179009725,-0.0997818,-1.0396194,9.650955,-0.003062439,-0.051705934,0.016862487,77.64275981,12.8796006,5.75
152179009746,-0.29180756,-0.8263016,8.340048,-7.446289E-4,-0.060136415,0.017112732,77.64275981,12.8796006,5.75
152179009767,-0.21954346,-0.969989,7.4509964,-0.0072143553,-0.04498596,0.040924072,77.64275981,12.8796006,5.75
152179009788,-0.20207672,-0.8364731,8.123375,0.010617065,0.008383179,0.0881958,77.64271391,12.87962565,5.68
152179009810,0.07848358,-0.8947357,8.879869,0.016728211,0.06495361,0.08318634,77.64271391,12.87962565,5.68
152179009831,0.3260208,-0.8659027,8.906548,0.009887695,0.09304962,0.022843933,77.64271391,12.87962565,5.68
152179009852,-0.22731781,-0.07005157,9.616379,-0.013813782,0.060917664,-0.04812927,77.64271391,12.87962565,5.68
152179009873,-0.9187256,-0.48221284,11.19684,0.0051223757,0.033924866,-0.06547852,77.64271391,12.87962565,5.68
152179009895,-0.31944275,-0.69134676,11.158194,0.0047561647,0.010830688,-0.06963043,77.64266409,12.87964864,5.67
152179009916,0.20231017,-0.7479355,8.882741,-0.01137085,-0.0063903807,-0.067797855,77.64266409,12.87964864,5.67
152179009937,-0.21475677,-0.6373886,8.658414,0.011473084,0.015721131,-0.030418396,77.64266409,12.87964864,5.67
152179009958,-0.75900424,-0.6248245,11.635922,-0.0036758422,0.03868408,-0.050942995,77.64266409,12.87964864,5.67
152179009980,0.5821716,-0.99631345,9.265114,0.008908081,0.020236205,-0.10665436,77.64266409,12.87964864,5.67
152179010001,-0.6467835,-0.5280365,10.213389,0.014163208,-0.017503357,-0.13193512,77.64261244,12.8796821,5.68
152179010022,0.01806488,-0.86793673,9.585871,0.022834778,-0.059651185,-0.11630249,77.64261244,12.8796821,5.68
152179010043,-0.93499756,-0.55196226,9.429024,-0.007218933,-0.0028503418,-0.022840882,77.64261244,12.8796821,5.68
152179010065,-0.12778015,-0.49286193,10.19987,-0.007096863,0.040148925,-0.045932006,77.64261244,12.8796821,5.68
152179010086,-0.20769806,-0.49226075,9.020685,0.017097473,0.060185242,-0.082092285,77.64261244,12.8796821,5.68
152179010107,-0.423172,-0.82378846,10.812193,0.010252381,0.0678833,-0.11056213,77.64256236,12.87970784,5.76
152179010128,0.31860352,-0.8584854,8.682343,0.021614075,0.03318634,-0.16786042,77.64256236,12.87970784,5.76
152179010150,-0.7153351,-1.1105683,11.198875,0.003289795,0.006436157,-0.15991822,77.64256236,12.87970784,5.76
152179010171,0.23939972,-1.407637,8.185234,0.017462159,6.9122313E-4,-0.16516876,77.64256236,12.87970784,5.76
152179010192,0.18137512,-1.3402832,8.253906,-0.0075790407,-0.0107803345,-0.17226104,77.6425184,12.87974927,5.63
152179010213,-0.48335114,-0.95814514,9.207209,0.04372711,0.03465576,-0.119111635,77.6425184,12.87974927,5.63
152179010235,0.24777374,-0.55531615,9.927088,0.0051208497,0.064216614,-0.14977722,77.6425184,12.87974927,5.63
152179010256,-0.023812866,-1.4924622,9.181005,0.042871095,-0.028500367,-0.2830704,77.6425184,12.87974927,5.63
152179010277,0.09379578,-1.7116439,8.680071,0.02784729,-0.10949707,-0.24091645,77.6425184,12.87974927,5.63
152179010298,-0.8542404,-0.704747,9.056819,0.010621643,-0.14028168,-0.16358642,77.64248646,12.87978847,5.73
152179010320,-0.33786774,-1.1388031,10.496582,0.025523376,-0.06453705,-0.027119447,77.64248646,12.87978847,5.73
152179010341,0.099658206,-1.0421326,10.090159,-0.0034317016,-0.026538085,-0.070855714,77.64248646,12.87978847,5.73
152179010362,-0.56805724,-1.123848,9.268583,0.020028686,-0.0076080323,-0.06437836,77.64248646,12.87978847,5.73
152179010383,0.6053833,-0.6150131,9.05646,0.02784729,-0.0050460817,-0.1028656,77.64248646,12.87978847,5.73
152179010405,-0.41216582,-1.0545762,11.059252,-0.096759036,-0.073451236,-0.112760924,77.64246104,12.87983274,5.48
152179010426,-0.8366516,-1.1665618,9.108623,0.103588864,-0.09581299,-0.045445252,77.64246104,12.87983274,5.48
152179010447,-0.43369904,-0.68296814,10.557236,0.028944397,0.06177368,0.106033325,77.64246104,12.87983274,5.48
152179010468,0.041752625,-0.92883456,9.948507,-0.04129181,0.050535582,-0.06291504,77.64246104,12.87983274,5.48
152179010490,0.008612061,-0.5842682,9.679311,0.041772462,-0.0039489744,-0.1538086,77.64243675,12.87987777,5.0
152179010511,0.18747559,-0.745546,10.324178,0.02467041,-0.10118256,-0.13010406,77.64243675,12.87987777,5.0
152179010532,-1.0097733,-0.98051757,10.069821,0.0023101806,-0.052072145,-0.008428955,77.64243675,12.87987777,5.0
152179010553,0.2708664,-0.37130433,9.455345,0.009521484,0.01975708,0.031153869,77.64243675,12.87987777,5.0
152179010575,-0.6646072,-0.7449478,9.065074,0.0076934816,0.007899475,-0.058512878,77.64243675,12.87987777,5.0
152179010596,-0.38010255,-0.27247924,10.76649,-0.054367065,0.024145508,-0.0296875,77.6424138,12.87991689,4.99
152179010617,-0.30616456,-0.5273193,10.272371,0.062176514,0.0673935,-0.0139251705,77.6424138,12.87991689,4.99
152179010639,0.11700592,-0.612381,9.368845,-0.04263916,0.08743286,-0.05533905,77.6424138,12.87991689,4.99
152179010660,-0.096911624,-0.70366824,8.62001,0.01831665,0.034658812,-0.17079315,77.6424138,12.87991689,4.99
152179010681,0.08614044,-0.5347351,9.772034,0.06302948,-0.08396149,-0.2284607,77.6424138,12.87991689,4.99
152179010702,-0.3919464,-0.8651825,11.040705,0.0025527955,-0.18181916,-0.16126403,77.6423977,12.87996569,5.54
152179010724,-0.8624939,-0.32392883,9.591974,-0.02835083,-0.16044006,-0.0052520754,77.6423977,12.87996569,5.54
152179010745,-0.86979216,-1.1067398,9.594248,-0.009538269,0.015356446,0.18458863,77.6423977,12.87996569,5.54
152179010766,-0.057188414,-0.18131714,9.71066,0.009524536,0.14216308,0.08893128,77.6423977,12.87996569,5.54
152179010787,0.49638826,-0.9244049,11.116201,-0.004893494,0.102946475,-0.11007385,77.6423977,12.87996569,5.54
152179010809,-0.40558472,7.8125E-4,10.592772,0.0020721436,-0.015792847,-0.18581238,77.64238195,12.88000867,4.93
152179010830,-0.16929321,-0.820079,9.582044,0.06547241,-0.06856994,-0.123875424,77.64238195,12.88000867,4.93
152179010851,0.18938904,-1.3036683,8.798157,-0.033599854,-0.10045166,-0.08869171,77.64238195,12.88000867,4.93
152179010872,-0.82360995,-0.32907256,9.139608,0.045439146,-0.11535797,-0.03127136,77.64238195,12.88000867,4.93
152179010894,-0.54532623,-0.9138794,10.99692,0.021250915,-0.04816742,0.0769577,77.64236295,12.88005864,5.03
152179010915,-0.2542389,0.14171752,10.277875,-0.0064819334,0.056036375,0.118493654,77.64236295,12.88005864,5.03
152179010936,0.35868376,-0.9817154,9.502241,0.034321595,0.060675047,-0.03273468,77.64236295,12.88005864,5.03
152179010957,0.10827484,-0.7261612,8.920069,-0.012832642,0.0058273314,-0.07647552,77.64236295,12.88005864,5.03
152179010979,-0.26237336,-0.6460007,9.844656,-0.007829284,-0.0060180663,-0.054608155,77.64236295,12.88005864,5.03
152179011000,-0.10516663,-0.045161437,9.783999,-0.02456665,0.0011810303,-0.051916502,77.64234878,12.88010466,4.95
152179011021,0.526059,-1.1852249,9.059929,0.015507507,-0.008833313,-0.07268524,77.64234878,12.88010466,4.95
152179011042,0.13698883,-0.0019744872,9.221924,0.017823791,-0.1437027,-0.15991211,77.64234878,12.88010466,4.95
152179011064,-0.055514526,-0.49621123,10.545395,0.04299469,-0.32757264,-0.13303986,77.64234878,12.88010466,4.95
152179011085,-1.795813,-1.7431122,9.517795,-0.04789276,-0.30484468,0.23223877,77.64234878,12.88010466,4.95
152179011106,-0.58217776,-0.8174499,9.714365,0.0690155,-0.15957947,0.4372406,77.64233749,12.88015505,4.95
152179011127,-1.1212753,-1.2279389,9.784955,0.10774384,0.061653137,0.48171386,77.64233749,12.88015505,4.95
152179011149,1.0536804,-1.3053436,9.521144,0.004876709,0.15608978,0.45068207,77.64233749,12.88015505,4.95
152179011170,0.020217896,-0.68309176,10.245336,0.042263795,0.08584289,0.1633316,77.64233749,12.88015505,4.95
152179011192,-0.8316269,-1.2561722,9.268942,-0.0028152466,0.15010528,0.29381102,77.64232494,12.880195,4.74
152179011212,0.39589232,-1.113919,10.017299,-0.042150877,0.23843384,0.2247818,77.64232494,12.880195,4.74
152179011234,0.54317015,-0.8682953,9.733389,0.057774354,0.24552003,0.052648924,77.64232494,12.880195,4.74
152179011255,1.0403976,-0.92309266,11.779132,0.27414855,0.041134644,-0.29247895,77.64232494,12.880195,4.74
152179011276,-0.72706145,-2.2349594,6.4939866,-0.12266235,-0.14406434,-0.22002868,77.64232494,12.880195,4.74
152179011297,-0.79872435,-0.25489503,12.696184,-0.41489562,-0.07089081,0.071588136,77.6423035,12.88022649,4.37
152179011319,-0.6053864,-0.9394806,7.7914934,0.48538056,0.03832245,0.087954715,77.6423035,12.88022649,4.37
152179011340,-0.21655273,-1.3223343,11.76621,-0.13670807,0.095617674,-0.0029327392,77.6423035,12.88022649,4.37
152179011361,0.028115844,0.4056427,8.872691,-0.016497802,0.00533905,-0.0989563,77.6423035,12.88022649,4.37
152179011382,0.046418764,-1.2077163,10.285654,0.10249481,0.0048477175,-0.17873535,77.6423035,12.88022649,4.37
152179011404,-0.45703125,-1.0051636,8.961466,-0.07354736,-4.0283203E-4,-0.02357483,77.64228213,12.88025661,4.33
152179011425,-0.12335205,-0.69996035,9.283539,0.0676712,-0.0030914308,-0.12619933,77.64228213,12.88025661,4.33
152179011446,-0.61938477,-0.5697891,9.758156,-0.021388244,-0.021896362,-0.0836792,77.64228213,12.88025661,4.33
152179011468,-0.33356172,-0.81302035,9.64665,-0.0068496703,-0.029963683,-0.050454713,77.64228213,12.88025661,4.33
152179011489,-0.46193543,-0.48173523,9.978894,-0.012960816,-0.026416015,-0.06975403,77.64226312,12.88029354,4.26
152179011510,0.13519439,-0.5404785,10.078794,0.0031677247,-0.056108095,-0.124975584,77.64226312,12.88029354,4.26
152179011532,-0.20279388,-0.6218338,9.742365,0.045437623,-0.13160554,-0.13621978,77.64226312,12.88029354,4.26
152179011552,-0.3211197,-0.61250305,10.328125,0.041526794,-0.17143402,-0.06596832,77.64226312,12.88029354,4.26
152179011574,-0.5151764,-0.46175385,9.73351,-0.0025741577,-0.19061431,0.046418764,77.64226312,12.88029354,4.26
152179011595,-0.6270431,-0.5909653,9.36944,-0.002696228,-0.21468505,0.1536789,77.64224393,12.88033216,4.2
152179011616,-0.9629944,-1.0636704,10.137655,0.020513916,-0.14528808,0.34500122,77.64224393,12.88033216,4.2
152179011637,-0.05934448,-0.7554733,9.927927,0.012940979,-0.092877194,0.38592988,77.64224393,12.88033216,4.2
152179011659,-0.4487732,-1.1043488,10.004976,0.07500305,-0.07174377,0.376033,77.64224393,12.88033216,4.2
152179011680,-0.6138794,-1.1208588,10.156799,0.08892975,-0.009196472,0.4899002,77.64224393,12.88033216,4.2
152179011701,-0.07776642,-0.823909,10.305514,0.085632324,0.053590395,0.4715683,77.64222019,12.88035703,4.01
152179011723,0.15361634,-0.9154358,9.108383,0.026992798,0.06593017,0.39717254,77.64222019,12.88035703,4.01
152179011744,-0.02081604,-0.51858366,9.96992,-0.014663696,0.024394225,0.33535308,77.64222019,12.88035703,4.01
152179011765,-0.3578476,-0.74566495,10.275606,0.08917694,0.035881042,0.32106018,77.64222019,12.88035703,4.01
152179011787,0.2889328,-1.0789826,6.1396103,0.042758178,0.077287294,0.34305114,77.64222019,12.88035703,4.01
152179011808,-0.19932404,-1.1809189,12.144879,-0.2196579,0.07154846,0.2521469,77.64218674,12.880377,3.99
152179011829,-0.08961181,-1.3703095,8.733788,0.24555512,-0.026181031,0.16137543,77.64218674,12.880377,3.99
152179011850,-0.11246338,-0.94211733,11.385396,-0.06804657,-0.07137604,0.112385556,77.64218674,12.880377,3.99
152179011872,-0.47090912,-0.5196594,9.16653,-0.009901429,-0.14357758,0.19277649,77.64218674,12.880377,3.99
152179011892,-1.0683944,-1.2375091,11.23692,0.1264389,-0.10558472,0.2900238,77.64215146,12.88038678,4.16
152179011914,-0.5632721,-1.380719,9.276004,-0.0083145145,0.0027755736,0.4639969,77.64215146,12.88038678,4.16
152179011935,0.045585632,-1.0421356,9.947187,0.096264645,0.036239624,0.33547363,77.64215146,12.88038678,4.16
152179011957,-0.14692077,-0.97202146,10.023519,0.012452697,0.006919861,0.27072296,77.64215146,12.88038678,4.16
152179011978,-0.03529663,-1.0537399,9.867269,0.044950865,-0.029594421,0.26241606,77.64215146,12.88038678,4.16
152179011999,-0.2687149,-0.963411,9.960228,0.02613678,-0.065756224,0.23382416,77.64211474,12.8803865,4.04
152179012020,-0.3907501,-0.9912842,10.335185,0.012451172,-0.090071104,0.30383453,77.64211474,12.8803865,4.04
152179012042,-0.69009244,-1.4395797,9.643417,0.04788208,-0.058670044,0.3855606,77.64211474,12.8803865,4.04
152179012063,-0.6812393,-1.6933396,9.840708,0.03627472,0.07594452,0.5183624,77.64211474,12.8803865,4.04
152179012084,0.03325958,-1.941835,10.402425,0.032611083,0.20288543,0.43320924,77.64211474,12.8803865,4.04
152179012105,0.29203948,-1.7776871,9.754565,0.029067993,0.24185638,0.23334046,77.64208143,12.8803745,3.69
152179012127,0.26787567,-1.8462417,9.598674,-0.0102737425,0.22487792,0.038967896,77.64208143,12.8803745,3.69
152179012148,0.14165345,-1.46315,9.657778,0.007931518,0.16194916,-0.09516601,77.64208143,12.8803745,3.69
152179012169,-0.032305907,-1.6197617,10.121504,0.028581237,0.10099335,-0.18850708,77.64208143,12.8803745,3.69
152179012190,-0.10061798,-2.0337188,9.439914,0.017462159,0.050901793,-0.24812622,77.64205119,12.8803542,3.93
152179012212,-0.16833648,-2.3617768,10.333865,0.018315125,0.02328949,-0.2539917,77.64205119,12.8803542,3.93
152179012233,-0.41204375,-2.0541763,9.947426,0.025282288,0.02842865,-0.2418991,77.64205119,12.8803542,3.93
152179012254,-0.090448,-2.1664047,9.440745,0.035905458,0.040760804,-0.24409637,77.64205119,12.8803542,3.93
152179012275,-0.18520507,-2.1850662,9.678952,0.042138673,0.06482849,-0.27256012,77.64205119,12.8803542,3.93
152179012297,-0.35605317,-2.1439102,10.554367,0.042259216,0.09488068,-0.29455566,77.64202375,12.88033713,3.25
152179012318,0.25016785,-2.139244,9.341322,0.07756958,0.09170532,-0.43089598,77.64202375,12.88033713,3.25
152179012339,0.42484283,-2.2493134,10.067906,0.1108017,0.015960693,-0.701268,77.64202375,12.88033713,3.25
152179012360,-0.29216462,-2.4938583,9.520546,0.1258255,-0.06282349,-0.7783569,77.64202375,12.88033713,3.25
152179012382,-1.0865829,-1.9959137,9.534305,0.14097747,-0.062213134,-0.64029694,77.64202375,12.88033713,3.25
152179012403,-0.77216494,-1.0885528,9.743197,0.08746643,-0.04889374,-0.5250946,77.64200231,12.88033121,2.05
152179012424,-1.3490738,-1.4291718,10.269025,0.061442565,0.01546936,-0.3214325,77.64200231,12.88033121,2.05
152179012446,-0.186763,-1.2375076,9.772036,0.013188171,0.06947021,-0.28783265,77.64200231,12.88033121,2.05
152179012467,0.7994415,-0.4983673,10.209204,0.102853395,0.044670105,-0.5985184,77.64200231,12.88033121,2.05
152179012488,-0.6067017,-0.65305936,9.744397,0.16222993,0.027566528,-0.69809264,77.6419902,12.88033657,1.6
152179012509,-1.2092133,-0.77569276,10.068266,0.11873627,0.08364258,-0.51434326,77.6419902,12.88033657,1.6
152179012530,-0.13746949,-1.2716049,9.749542,0.09112854,0.12701264,-0.49235076,77.6419902,12.88033657,1.6
152179012552,0.2634491,-1.3551147,10.406253,0.15136108,0.11760406,-0.74231416,77.6419902,12.88033657,1.6
152179012573,0.28031462,-1.2426529,10.307666,0.26107177,0.051756285,-1.0058457,77.6419902,12.88033657,1.6
152179012594,-0.7524231,-0.80129397,10.682623,0.3050537,-0.02129059,-1.0843964,77.64198662,12.88035098,1.85
152179012615,-0.3146576,-1.1414368,8.802699,0.28367463,-0.08310394,-0.99912417,77.64198662,12.88035098,1.85
152179012637,-1.4020767,0.13632965,9.867746,0.20414428,-0.09580841,-0.81537473,77.64198662,12.88035098,1.85
152179012658,-1.0802414,-0.2798996,10.905752,0.14622192,-0.034603883,-0.57005006,77.64198662,12.88035098,1.85
152179012679,-0.66963655,0.05282135,11.045733,0.12765808,-0.016033936,-0.5585663,77.64198662,12.88035098,1.85
152179012700,-0.65731204,0.48054045,9.684817,0.14060974,-0.033747863,-0.60267335,77.64199292,12.88036901,1.88
152179012722,-0.33032838,0.14985046,8.823996,0.13755341,-0.088357545,-0.59998477,77.64199292,12.88036901,1.88
152179012743,-1.1662629,0.07028961,8.475603,0.12154999,-0.13062744,-0.5497726,77.64199292,12.88036901,1.88
152179012764,-1.514418,0.51140594,11.0527935,0.06791534,-0.16886902,-0.43432006,77.64199292,12.88036901,1.88
152179012785,-0.5352753,0.30514526,9.332354,0.0433609,-0.15457459,-0.25008392,77.64199292,12.88036901,1.88
152179012807,-1.6808411,0.99583435,10.320111,0.024058532,-0.09971924,-0.07940521,77.64201491,12.88038166,2.65
152179012828,-0.35940248,0.626503,9.920627,0.028703308,-0.04608307,-0.03994293,77.64201491,12.88038166,2.65
152179012849,-0.050608825,0.5785263,9.619611,0.013800049,-0.036431886,-0.13071747,77.64201491,12.88038166,2.65
152179012870,0.067834474,0.52899474,9.884972,0.0061019897,-0.09055634,-0.16968994,77.64201491,12.88038166,2.65
152179012892,-0.29252166,0.6175278,9.89012,0.030529786,-0.17900696,-0.16272736,77.64204809,12.88038861,3.3
152179012913,-1.0363327,0.8316849,9.726451,0.0021896362,-0.20209503,0.027604675,77.64204809,12.88038861,3.3
152179012934,-0.94708097,0.59503937,9.728604,0.006095886,-0.113644406,0.21684417,77.64204809,12.88038861,3.3
152179012955,-0.5644684,0.46414948,10.036438,0.02149353,0.014987183,0.27536315,77.64204809,12.88038861,3.3
152179012977,0.055635072,0.30646056,9.588745,0.017584229,0.06470795,0.2145218,77.64204809,12.88038861,3.3
152179012998,-0.37124786,-0.10187073,10.580566,-0.01442566,0.0016754151,0.061932374,77.64208705,12.88039599,3.74
152179013019,0.56351167,-0.686319,10.548384,-0.025907898,-0.17876434,-0.070611574,77.64208705,12.88039599,3.74
152179013040,-1.5237519,-0.76552427,10.245573,0.007810974,-0.17973785,0.1841034,77.64208705,12.88039599,3.74
152179013062,-0.63876647,-0.9606598,10.161588,0.05545654,-0.052685548,0.46778107,77.64208705,12.88039599,3.74
152179013083,0.26823425,-1.095134,9.331395,0.04384918,0.044059753,0.43137664,77.64208705,12.88039599,3.74
152179013104,-0.044267274,-1.0421326,9.162105,0.01623993,0.040881347,0.30688173,77.642125,12.88040826,3.7
152179013125,-0.111386105,-1.0154556,9.460131,0.048368834,0.08278809,0.37615508,77.642125,12.88040826,3.7
152179013147,0.12191162,-0.7194611,10.0659895,0.013920593,0.14546204,0.37725526,77.642125,12.88040826,3.7
152179013168,0.35581207,-1.1754135,9.545671,-0.024435425,0.14106445,0.25190124,77.642125,12.88040826,3.7
152179013189,-0.45391998,-0.81385803,10.526372,-0.15955047,0.12163849,0.112997435,77.64215353,12.880426,3.03
152179013210,-0.08817749,-0.1068985,9.340368,0.08379517,0.20569305,0.13669892,77.64215353,12.880426,3.03
152179013232,0.29216307,0.38087615,8.736659,0.34341583,0.13800812,-0.036654662,77.64215353,12.880426,3.03
152179013253,0.4561905,-0.29653016,11.18679,-0.1068985,0.044181824,-0.2779358,77.64215353,12.880426,3.03
152179013274,0.27732545,0.78478396,8.923418,-0.2089096,-0.1835312,-0.42576295,77.64215353,12.880426,3.03
152179013295,-0.7039688,-0.2675751,9.446729,0.16211395,-0.27577057,-0.2775711,77.64217487,12.88044632,2.91
152179013317,-1.7207978,-0.1470993,10.690519,-0.050332643,-0.23581848,0.13951568,77.64217487,12.88044632,2.91
152179013338,-0.51601106,0.22737885,9.262842,0.11336212,-0.16129151,0.33791962,77.64217487,12.88044632,2.91
152179013359,-0.48347014,-0.40277252,10.088841,0.06522827,-0.11010132,0.43088835,77.64217487,12.88044632,2.91
152179013380,-0.75134736,0.6237503,10.160747,0.06585083,0.0063110352,0.6241684,77.64217487,12.88044632,2.91
152179013402,-0.2886963,0.42682037,10.436757,0.09601746,0.012547302,0.3985092,77.64219514,12.8804669,2.89
152179013423,-0.71342313,-0.9057419,8.797316,0.02076416,0.053100586,0.53510284,77.64219514,12.8804669,2.89
152179013444,-0.007658386,0.25046843,9.813191,0.06828308,0.08620758,0.42917937,77.64219514,12.8804669,2.89
152179013465,-0.52091825,0.6040085,11.68318,-0.011242676,0.13825226,0.4351639,77.64219514,12.8804669,2.89
152179013487,0.31118163,1.2506683,11.855104,0.047639467,0.101234436,0.27402037,77.64219514,12.8804669,2.89
152179013508,-0.19896393,0.10522461,9.779329,-0.020159911,0.05505524,0.13229981,77.64220639,12.8804924,3.16
152179013529,-0.38165742,0.11898498,11.381569,-0.16944428,0.027691651,0.15526581,77.64220639,12.8804924,3.16
152179013550,-0.046662904,1.0535004,8.551092,0.28733978,0.011199951,0.13193206,77.64220639,12.8804924,3.16
152179013572,-0.37005004,-1.454895,11.412674,-0.18496704,0.0030120849,0.09736176,77.64220639,12.8804924,3.16
152179013593,-0.35485536,0.5054245,7.9415255,-0.23676452,-0.01689148,0.16833802,77.6422084,12.88052593,3.81
152179013614,-0.050968934,-0.13166504,10.109423,0.1781189,-0.028010558,0.111651614,77.6422084,12.88052593,3.81
152179013635,-0.9804596,-0.10031891,10.917715,-0.015153503,-0.029841613,0.079039,77.6422084,12.88052593,3.81
152179013657,0.5002182,-0.7322647,7.8096786,-0.004525757,-0.043522645,0.17212829,77.6422084,12.88052593,3.81
152179013678,-1.3614013,0.17533417,11.413632,0.0019454956,-0.014573669,0.17713928,77.6422084,12.88052593,3.81
152179013699,0.56673735,-0.7549988,9.034567,-0.023216248,-0.00504303,0.19264984,77.64220385,12.88056431,4.27
152179013720,-0.8694336,-0.08500519,9.208765,0.034443665,0.02976532,0.17346954,77.64220385,12.88056431,4.27
152179013742,-0.28701934,0.21027069,10.988788,-0.0012313842,0.040518187,0.1498932,77.64220385,12.88056431,4.27
152179013763,0.53862303,-0.8888733,7.9197493,-0.011618042,0.024389649,0.091494754,77.64220385,12.88056431,4.27
152179013784,-1.2776505,0.3175873,11.379293,-0.005508423,0.008628845,0.10884094,77.64220385,12.88056431,4.27
152179013805,0.41299742,-0.749852,9.098094,-0.013076782,0.0076538087,0.11018524,77.64219202,12.88060381,4.47
152179013827,-1.1645874,0.22163543,10.402662,0.07512665,0.01083374,0.098947145,77.64219202,12.88060381,4.47
152179013848,-0.31728822,-0.85800475,9.433928,-0.038482666,0.044424437,0.12863617,77.64219202,12.88060381,4.47
152179013869,-0.07166748,-0.46055907,9.991453,-0.054978944,0.032696534,0.07512512,77.64219202,12.88060381,4.47
152179013890,-0.5493927,-0.16109619,9.757197,0.028578186,-0.0030944825,0.015275573,77.64217293,12.8806424,4.71
152179013912,-0.19441986,-0.31435394,9.468382,0.0025573731,-0.09458923,-0.006227112,77.64217293,12.8806424,4.71
152179013933,-0.37794647,-0.7704285,9.943599,-0.038607787,-0.15115662,0.03909149,77.64217293,12.8806424,4.71
152179013954,-1.6717469,0.06789704,9.984877,0.038227845,-0.09275818,0.2280838,77.64217293,12.8806424,4.71
152179013976,-0.91346437,-0.42921448,10.308263,-0.0083145145,0.040396117,0.29026946,77.64217293,12.8806424,4.71
152179013997,-0.26716003,-1.4289337,9.6112385,-0.033598326,0.13935395,0.22441712,77.64214334,12.88068759,5.01
152179014018,0.103970334,-0.74063873,10.237318,0.023690796,0.08461914,-0.0052520754,77.64214334,12.88068759,5.01
152179014039,-0.38536376,-1.1888138,9.602145,-0.009898377,0.075827025,0.0559494,77.64214334,12.88068759,5.01
152179014061,0.123587035,-0.7821533,9.06364,-0.04116974,0.12188263,0.053257752,77.64214334,12.88068759,5.01
152179014082,0.21511078,-0.95395964,10.918315,-0.002203369,-0.039126586,-0.19681397,77.64214334,12.88068759,5.01
152179014103,-1.8424743,-1.119899,8.791573,-0.0020828247,-0.044866942,0.04385834,77.64211391,12.88071925,4.86
152179014124,-1.2192643,-0.79986113,10.145792,-0.004890442,0.23879853,0.3348648,77.64211391,12.88071925,4.86
152179014145,1.350267,-1.4367096,10.287328,0.022349548,0.2953705,-0.064265445,77.64211391,12.88071925,4.86
152179014167,0.27373505,-1.4947373,9.497579,0.10053711,-0.13050537,-0.6583832,77.64211391,12.88071925,4.86
152179014188,-1.3747971,-0.8060837,9.906631,0.32154694,-0.24534912,-0.25032347,77.64208362,12.88075661,4.84
152179014209,-0.56985015,-2.4753144,7.60007,-0.19865417,-0.15054321,-0.026141357,77.64208362,12.88075661,4.84
152179014231,-0.4543991,0.4206009,12.146074,-0.34904632,-0.1278244,0.0667038,77.64208362,12.88075661,4.84
152179014252,-0.7941818,-1.713443,10.572197,0.5569717,-0.015797425,0.0710968,77.64208362,12.88075661,4.84
152179014273,-0.5432922,-0.2479538,10.199872,-0.27879333,0.020121764,0.12020874,77.64208362,12.88075661,4.84
152179014294,-0.04223175,-0.28528136,8.858333,0.08612976,0.09781647,0.08551331,77.64205798,12.88078384,4.69
152179014316,-0.46289214,-0.2429306,10.687291,-0.050701905,0.09720459,-0.05545807,77.64205798,12.88078384,4.69
152179014337,0.081236266,-0.9502487,9.138295,-0.028347779,0.062265016,-0.1252182,77.64205798,12.88078384,4.69
152179014358,-0.37029114,-0.3324234,11.599553,0.027601624,-0.008340454,-0.1750656,77.64205798,12.88078384,4.69
152179014379,-0.47258607,-0.50039977,9.852194,0.020881653,-0.127211,-0.1652954,77.64205798,12.88078384,4.69
152179014401,-0.74057925,-0.8777496,9.303996,0.06046448,-0.096055605,-0.0067184446,77.64203084,12.88082747,5.18
152179014422,-1.0181472,-0.11718597,10.896543,0.02833252,-0.01212616,0.050942995,77.64203084,12.88082747,5.18
152179014443,0.431662,-1.0879562,9.61315,-0.049365234,0.007904053,-0.018563842,77.64203084,12.88082747,5.18
152179014464,-0.7889145,-0.37740478,9.765811,-0.0072158813,-0.014694214,-0.04800873,77.64203084,12.88082747,5.18
152179014486,0.3925415,-0.76636046,9.673327,0.06303253,-0.044017028,-0.0652359,77.64203084,12.88082747,5.18
152179014507,-1.2214172,-0.29569548,10.467508,0.0025558472,-0.081639096,-0.046542358,77.6420102,12.880867,5.18
152179014528,-0.3471985,-0.6716064,9.8354435,0.004386902,-0.04242096,0.050689697,77.6420102,12.880867,5.18
152179014549,0.031944275,-0.7918457,8.643817,-0.01650238,0.025613403,0.057170104,77.6420102,12.880867,5.18
152179014571,-1.0414765,-0.22965088,11.279752,-0.03982849,0.06336212,0.007699585,77.6420102,12.880867,5.18
152179014592,0.77348024,-0.673642,9.621765,-0.028102111,0.03514252,-0.05558624,77.64199118,12.88090982,5.23
152179014614,0.10959015,-0.43746796,8.6581745,0.04739227,-0.06978913,-0.15368804,77.64199118,12.88090982,5.23
152179014634,-1.4262451,-0.33122557,11.290876,-0.012228394,-0.10472717,-0.010876465,77.64199118,12.88090982,5.23
152179014656,0.7591217,-1.0672576,8.170756,-0.015400696,-0.050975036,0.061685182,77.64199118,12.88090982,5.23
152179014677,-1.1284577,-0.33601075,10.719708,0.017462159,-0.042422485,0.013809204,77.64199118,12.88090982,5.23
152179014698,0.11940155,-0.6195618,9.493149,-0.02395172,-0.03338318,0.06046448,77.64197022,12.88095585,5.25
152179014719,0.13519135,-0.5065018,8.709859,0.010740662,0.0010635376,0.06987305,77.64197022,12.88095585,5.25
152179014741,-0.39517516,-0.4310074,11.066071,0.023075867,-0.010295105,0.018087769,77.64197022,12.88095585,5.25
152179014762,-0.040081788,-0.9193802,8.782483,-0.017845154,-5.2490237E-4,0.062174987,77.64197022,12.88095585,5.25
152179014783,-0.6031128,-0.33637086,10.904078,-0.01686554,0.03880768,0.068165585,77.64197022,12.88095585,5.25
152179014804,0.69439393,-0.7826294,8.775902,0.0152633665,0.016818237,-0.012944031,77.64194302,12.88100187,5.35
152179014826,-0.8055466,-1.257727,11.631258,-0.010272217,-0.003453064,0.0024490356,77.64194302,12.88100187,5.35
152179014847,0.03302002,-1.1385635,11.412313,-0.017233277,-0.024217224,-4.8370362E-4,77.64194302,12.88100187,5.35
152179014868,-0.42089692,-0.19914246,9.9809265,-0.007095337,-0.0335022,0.010510254,77.64194302,12.88100187,5.35
152179014889,-0.56099856,-1.3337005,9.602742,0.048980713,-0.030201722,0.015638733,77.64191895,12.88104784,5.37
152179014911,-0.626561,-0.70486605,9.479032,-0.024194336,0.03965912,0.09552918,77.64191895,12.88104784,5.37
152179014932,-0.15541688,-1.2860794,9.605374,0.002069092,0.059700012,0.018815612,77.64191895,12.88104784,5.37
152179014953,0.86955106,-1.1973083,10.020291,0.028334046,-0.047190856,-0.1087265,77.64191895,12.88104784,5.37
152179014974,-0.7661804,-1.4018952,9.600706,0.005610657,-0.08750305,-0.02980957,77.64191895,12.88104784,5.37
152179014996,-0.7311264,-1.191446,10.076042,-0.004161072,0.050289918,0.18275604,77.64189477,12.88108941,5.1
152179015017,0.2898895,-1.666304,10.096739,0.0012115479,0.016940307,-0.012705994,77.64189477,12.88108941,5.1
152179015039,-0.024526978,-1.0673767,4.6418214,-0.37934265,-0.019212341,0.0020767213,77.64189477,12.88108941,5.1
152179015059,-0.425325,-0.079977416,10.208842,0.47304687,0.035754394,-0.033721924,77.64189477,12.88108941,5.1
152179015081,1.2333786,-2.5801194,9.566371,0.080265805,0.1686844,-0.051800538,77.64189477,12.88108941,5.1
152179015102,-0.58073884,0.84915316,9.399829,-0.1907074,-0.25879058,-0.16150817,77.64186714,12.88113053,4.57
152179015123,-0.9139389,-0.33301848,10.038831,0.20890656,-0.084811404,0.16797638,77.64186714,12.88113053,4.57
152179015145,-1.09077,-0.37585297,8.909541,-0.13047028,0.034043886,0.31910554,77.64186714,12.88113053,4.57
152179015166,0.66604006,0.03583374,9.908546,0.011351014,0.050779723,0.11898804,77.64186714,12.88113053,4.57
152179015187,0.07932129,-1.167038,9.953052,0.014653015,-0.087623596,-0.12179718,77.64186714,12.88113053,4.57
152179015209,-1.3487136,-0.3565918,10.637396,-0.028346252,-0.02276001,0.18740387,77.64184885,12.88116713,4.12
152179015230,0.97316134,-0.9538391,10.131674,0.007563782,0.0507782,0.12815094,77.64184885,12.88116713,4.12
152179015251,0.42005768,-1.0012176,9.341922,-0.015525818,-0.0776062,-0.104328915,77.64184885,12.88116713,4.12
152179015272,-1.4232528,-0.5807983,10.303839,0.03126526,0.0019195557,0.17665558,77.64184885,12.88116713,4.12
152179015293,0.3561676,-1.0426102,10.219252,0.0013336182,0.12493744,0.20535736,77.64182771,12.88120074,4.58
152179015315,0.82695615,-1.1892914,9.447805,-0.065359496,0.046014406,-0.072567746,77.64182771,12.88120074,4.58
152179015336,-0.8804413,-0.7224533,8.945552,-0.016012574,0.057011414,0.022595216,77.64182771,12.88120074,4.58
152179015357,-0.110551454,-0.9099304,10.604616,-0.01014862,0.15157013,0.068655394,77.64182771,12.88120074,4.58
152179015378,0.22683716,-0.52492523,9.219053,0.077812195,0.155484,-0.08673706,77.64182771,12.88120074,4.58
152179015400,0.43621367,-0.9652039,13.402186,0.1779953,0.021949768,-0.33670348,77.64180756,12.88121735,3.99
152179015421,-0.9079544,-0.72783506,4.1114516,0.24275056,-0.098745726,-0.2274765,77.64180756,12.88121735,3.99
152179015442,-0.4758133,-2.6021347,13.92705,-1.0941696,-0.05672455,-0.08331756,77.64180756,12.88121735,3.99
152179015464,-1.1036911,0.8242661,5.007324,0.5634521,0.06837311,-0.13682708,77.64180756,12.88121735,3.99
152179015485,-0.039959718,-0.06502533,12.518034,0.16015625,-0.04059448,-0.21184082,77.64180756,12.88121735,3.99
152179015506,-0.7156952,0.9262039,7.6884828,-0.11911468,-0.12268829,-0.07953186,77.64178857,12.88124858,4.51
152179015527,0.12550354,-0.943071,9.79967,0.14305267,-0.09006958,-0.1319397,77.64178857,12.88124858,4.51
152179015548,-1.0451874,-0.18466492,10.934706,-0.12925568,-0.09715271,0.06571655,77.64178857,12.88124858,4.51
152179015570,-0.12646027,-0.6017334,8.386591,0.11141205,-0.014695739,0.06742859,77.64178857,12.88124858,4.51
152179015591,-0.45798796,-0.4101898,11.054825,-0.019921875,-0.017869567,0.06547699,77.64178857,12.88124858,4.51
152179015612,-0.46768036,0.031167602,9.19931,-0.106040955,-0.05622711,-0.03542633,77.64176813,12.88128246,3.89
152179015633,0.059820555,-1.0709702,10.500651,0.06523132,-0.013716126,0.048617553,77.64176813,12.88128246,3.89
152179015655,0.18424988,-0.87236327,9.320509,-0.011488343,-0.08249359,-0.08478241,77.64176813,12.88128246,3.89
152179015676,-0.19226685,-0.67387694,9.866673,0.030532837,-0.101185605,0.07048492,77.64176813,12.88128246,3.89
152179015697,-0.2461029,-1.0922623,11.428706,-0.07403717,-0.018484497,0.1746933,77.64174512,12.88132208,4.53
152179015719,0.44949037,-0.95563203,8.257136,0.06083069,-0.0028472901,0.101882935,77.64174512,12.88132208,4.53
152179015740,-0.36861572,-1.3563095,11.218137,-0.07904053,-0.007368469,0.0697464,77.64174512,12.88132208,4.53
152179015761,-0.18987274,-0.949292,9.381287,0.070970155,-0.004800415,0.15099183,77.64174512,12.88132208,4.53
152179015782,-0.17204742,-1.8430115,11.108545,0.04861603,0.13312225,0.21489105,77.64174512,12.88132208,4.53
152179015803,0.6023895,-1.8840516,8.782002,-0.05730133,0.11186371,0.030419922,77.64172006,12.88135767,4.52
152179015825,0.07130432,-1.2086731,10.714688,-0.09846649,0.090359494,-0.06560211,77.64172006,12.88135767,4.52
152179015846,-0.12921295,-0.76791686,8.646448,0.022471618,0.10575409,-0.056929015,77.64172006,12.88135767,4.52
152179015867,0.5441284,-0.91902316,13.399551,0.15637818,0.1428955,-0.14672394,77.64172006,12.88135767,4.52
152179015889,0.29359895,-1.5069382,5.185712,0.23761901,-0.011151123,-0.24128418,77.64172006,12.88135767,4.52
152179015910,0.5338379,-0.65258026,11.958476,-0.20719604,-0.08701782,-0.36712188,77.64169457,12.88138395,4.23
152179015931,-0.91728973,0.22594452,8.091556,0.103831485,-0.11499176,-0.18642883,77.64169457,12.88138395,4.23
152179015952,-0.80183715,-0.64408875,11.186673,-0.004522705,-0.03643799,0.04470215,77.64169457,12.88138395,4.23
152179015974,-0.58456725,0.13513489,9.514923,-0.072567746,-0.068200685,-0.028825378,77.64169457,12.88138395,4.23
152179015995,-1.0936401,0.5000412,10.657736,0.07353363,0.047236633,0.021253968,77.64168568,12.88141482,3.33
152179016016,-0.1892746,-0.36448517,8.074327,-0.09907532,0.0585968,0.011360168,77.64168568,12.88141482,3.33
152179016037,0.018424988,-0.3434311,8.558034,0.058999635,0.03538513,-0.20402375,77.64168568,12.88141482,3.33
152179016059,-1.2153137,0.057128906,10.643976,0.025524903,-0.0723526,-0.2009674,77.64168568,12.88141482,3.33
152179016080,-0.7362747,0.2021347,10.704636,0.014897156,-0.09764252,-0.10603943,77.64168568,12.88141482,3.33
152179016101,0.87397766,-1.0694091,8.206172,-0.010514831,-0.11291657,-0.04800873,77.64166268,12.88144502,4.01
152179016122,-1.6761734,0.017765809,11.046451,-8.605957E-4,-0.15591583,-0.021496583,77.64166268,12.88144502,4.01
152179016144,-1.1375488,-0.095056154,11.6226425,0.0065872194,-0.054763794,0.16113281,77.64166268,12.88144502,4.01
152179016165,0.39230195,-0.33421937,9.54627,-0.004527283,0.07215881,0.1826355,77.64166268,12.88144502,4.01
152179016186,1.3083954,-1.0661819,8.230459,-0.019309998,0.092681885,0.010383606,77.64166268,12.88144502,4.01
152179016208,0.82085574,-1.2664627,8.183081,0.018070985,-0.019702148,-0.12375641,77.64163999,12.88148113,4.21
152179016229,0.062690735,-1.091066,8.049321,0.004878235,-0.09837647,-0.055947877,77.64163999,12.88148113,4.21
152179016250,-0.8346176,-0.5544754,8.530039,0.0097640995,-0.05818329,0.07915954,77.64163999,12.88148113,4.21
152179016271,-0.97328186,-0.030807495,10.754646,-0.0077056885,-0.0052902224,0.09369354,77.64163999,12.88148113,4.21
152179016292,-1.0832336,0.37393647,11.977259,-0.011000061,-0.0043060305,0.04506836,77.64161739,12.88151879,4.48
152179016314,0.33032686,-0.14853363,10.695424,-2.532959E-4,-0.017251587,0.043115236,77.64161739,12.88151879,4.48
152179016335,-0.70073855,-0.10031738,9.794525,0.026744079,-0.01005249,0.05655365,77.64161739,12.88151879,4.48
152179016356,0.3847641,-0.85346067,8.9980755,-0.007098389,0.03795166,0.09418182,77.64161739,12.88151879,4.48
152179016377,0.49650726,-0.5099686,9.428305,-0.024926757,0.033798218,0.029072572,77.64161739,12.88151879,4.48
152179016399,-0.017826844,-0.55687106,9.618892,0.0049972534,0.0048477175,-0.03176117,77.64159584,12.88155629,4.39
152179016420,-0.11007385,-0.46211395,9.823122,-0.0029434203,-0.043154906,-0.017341614,77.64159584,12.88155629,4.39
152179016441,-0.3967331,-0.38003692,10.134906,0.015631104,-0.035212707,0.044825744,77.64159584,12.88155629,4.39
152179016462,-0.18963012,-0.53820646,9.8970585,-0.001473999,-0.01689148,0.05984802,77.64159584,12.88155629,4.39
152179016484,-0.085543826,-0.2759506,10.0407505,0.006222534,0.013517762,0.052767944,77.64159584,12.88155629,4.39
152179016505,0.0506073,-0.5005188,10.082022,0.012205506,0.015103149,0.026754761,77.64155526,12.88160692,5.29
152179016526,-0.38859254,-0.0925415,9.684337,0.0070755007,0.02988739,0.02784729,77.64155526,12.88160692,5.29
152179016548,0.072502136,-0.43925935,9.741405,-0.021261597,0.024264526,-8.544922E-4,77.64155526,12.88160692,5.29
152179016569,0.016508484,-0.69684905,9.838674,-0.003062439,-0.011640931,-0.046054076,77.64155526,12.88160692,5.29
152179016590,-0.19118957,-0.66933286,9.745114,-0.0035522461,-0.027272034,-0.005856323,77.64153788,12.88165068,5.57
152179016611,-0.14632264,-0.5950333,10.115046,0.0117172245,0.0011779785,0.031028748,77.64153788,12.88165068,5.57
152179016632,0.027993774,-0.72664034,9.509066,0.015501404,0.021705627,0.0051376345,77.64153788,12.88165068,5.57
152179016654,0.046057127,-0.7590622,9.658133,-0.0061157225,0.033677675,0.0031799315,77.64153788,12.88165068,5.57
152179016675,-0.6799194,-0.6830902,10.578415,-0.015522766,0.035749815,-0.03212738,77.64153788,12.88165068,5.57
152179016696,0.13136443,-0.7055832,9.262482,0.008177185,0.008996582,-0.06071472,77.64151233,12.88169438,5.57
152179016717,0.18556213,-0.83946073,9.357117,-0.019433593,-0.023362732,-0.07610931,77.64151233,12.88169438,5.57
152179016739,-0.7277786,-0.27272338,10.364977,0.02002716,-0.060746767,-0.06303406,77.64151233,12.88169438,5.57
152179016760,0.40474397,-0.96244967,9.454626,-0.011489868,-0.07638244,-0.03957672,77.64151233,12.88169438,5.57
152179016781,-0.56075895,-0.7143189,9.716759,0.0070755007,-0.08151398,0.004525757,77.64151233,12.88169438,5.57
152179016802,-0.19501953,-0.9758514,9.981885,-0.0077041625,-0.054637145,0.053625487,77.64149774,12.88174522,6.26
152179016824,-0.29766998,-0.5573471,8.919589,0.001208496,0.011080933,0.09919281,77.64149774,12.88174522,6.26
152179016845,-0.0028747558,-0.95575255,10.437239,-0.023953248,0.051023863,0.050205994,77.64149774,12.88174522,6.26
152179016866,0.72693634,-0.5951538,8.924016,0.013793945,-0.028741455,-0.06755829,77.64149774,12.88174522,6.26
152179016887,-0.9890747,-0.73860323,11.225433,0.012210083,-0.07406159,0.004525757,77.6414795,12.88179248,5.43
152179016909,-0.5411377,-1.2652633,11.656382,0.0053665163,-0.03705139,0.08892822,77.6414795,12.88179248,5.43
152179016930,-0.27864686,-1.2123826,11.243619,-0.004777527,0.022317505,0.093206786,77.6414795,12.88179248,5.43
152179016951,-0.06640472,-0.21673127,10.25957,-0.023583984,0.008021546,0.027851868,77.6414795,12.88179248,5.43
152179016972,0.058023073,-1.9341767,9.4656315,-0.0020858764,-0.03325958,-0.002684021,77.6414795,12.88179248,5.43
152179016994,-0.47066957,-1.1554337,9.817856,0.012939453,-0.044743348,0.058634948,77.64145426,12.88183485,5.42
152179017015,-0.078366086,-0.54801637,10.062761,0.03321991,-0.019824218,0.083918765,77.64145426,12.88183485,5.42
152179017036,-0.57092744,-1.366362,9.610878,-0.015400696,0.009362793,0.106889345,77.64145426,12.88183485,5.42
152179017057,0.109472655,-0.91973877,9.951735,0.009275818,0.06116333,0.090638734,77.64145426,12.88183485,5.42
152179017079,-0.09212647,-0.92967224,9.401146,-0.02358551,0.06837311,0.030049134,77.64145426,12.88183485,5.42
152179017100,-0.08757935,-1.3222138,9.603457,-0.016253661,0.032211304,-0.016365051,77.64142587,12.88187925,5.74
152179017121,-0.10217438,-1.3986633,9.354007,0.0042678835,-0.010658264,-0.033712767,77.64142587,12.88187925,5.74
152179017142,-0.320401,-1.0201203,9.908544,-0.0046524047,0.035507202,0.057899475,77.64142587,12.88187925,5.74
152179017164,0.40630037,-1.1151139,9.514804,-0.0024505616,0.061164856,0.0011001587,77.64142587,12.88187925,5.74
152179017185,0.16881104,-0.95335996,9.960233,-0.015034485,0.0065628053,-0.1106781,77.64142587,12.88187925,5.74
152179017206,-0.37136382,-1.2159729,10.043978,0.015505982,-0.080415346,-0.11654663,77.6413944,12.88190106,4.51
152179017227,-0.63673097,-0.94498444,10.245813,0.0065872194,-0.073207095,0.029560853,77.6413944,12.88190106,4.51
152179017249,-0.24107666,-1.6150955,9.459532,-0.008441162,-0.0033355714,0.08245544,77.6413944,12.88190106,4.51
152179017270,-0.24730071,-1.456691,9.871455,-0.0011154175,0.0653183,0.057165526,77.6413944,12.88190106,4.51
152179017291,0.12765503,-1.7045853,8.966608,0.01489563,0.05371399,-0.047276307,77.64136502,12.88194029,5.0
152179017312,-0.34731904,-1.5519241,9.670337,-0.057659913,-0.015420532,-0.13707428,77.64136502,12.88194029,5.0
152179017334,-0.65754855,-0.85668945,9.512891,0.03920746,-0.015672302,-0.0036636353,77.64136502,12.88194029,5.0
152179017355,-0.15290375,-1.0651032,10.14651,0.0039001466,0.044670105,-3.616333E-4,77.64136502,12.88194029,5.0
152179017376,0.013040161,-0.76648253,9.692116,0.006095886,-0.022024537,-0.13621521,77.64136502,12.88194029,5.0
152179017398,-0.86596376,-1.0177262,9.882822,0.071827695,-0.009194946,-0.058639526,77.64134294,12.88197741,4.68
152179017419,-0.29420012,-0.8883942,11.372951,0.108479306,0.025735473,-0.019911194,77.64134294,12.88197741,4.68
152179017440,0.4127594,-1.2897904,4.087407,0.21587524,0.026226807,-0.07024536,77.64134294,12.88197741,4.68
152179017461,0.18616028,-1.9283173,14.74647,-0.89808655,0.042233277,-0.07427521,77.64134294,12.88197741,4.68
152179017483,-0.28187713,0.5787643,6.3961196,0.5391342,0.02695923,-0.17677765,77.64134294,12.88197741,4.68
152179017504,-0.09116516,-1.1506469,12.161268,-0.0054992675,-0.028254699,-0.12485657,77.64131568,12.88201763,4.31
152179017525,-0.4878952,-1.1694336,5.791095,-0.071099855,0.075091556,0.009042358,77.64131568,12.88201763,4.31
152179017546,0.022969056,-0.2726013,10.106189,0.1574707,-0.10863952,-0.30285797,77.64131568,12.88201763,4.31
152179017568,-1.530809,-0.26374665,10.498259,-0.10310821,-0.14761047,-0.0758606,77.64131568,12.88201763,4.31
152179017589,-0.5222351,-0.9131607,9.654787,0.045805357,-0.057696532,0.057528686,77.6412937,12.88204629,3.72
152179017610,-0.60706025,-1.5445054,10.697578,-0.03030243,0.022315979,0.09503784,77.6412937,12.88204629,3.72
152179017631,0.19609222,-0.015496826,9.306871,0.003413391,0.015716553,0.0037872314,77.6412937,12.88204629,3.72
152179017653,-0.6665222,-1.3800004,9.717715,0.04006195,-0.008335876,-0.05326233,77.6412937,12.88204629,3.72
152179017674,-0.11928253,-0.83575284,9.361185,-0.06108551,-0.019213866,-0.0012207031,77.6412937,12.88204629,3.72
152179017695,-0.66843414,-0.8631531,10.596481,-0.014056397,-0.038754273,-0.0164917,77.64127653,12.88207727,4.4
152179017716,-0.5733215,-1.1158326,9.557993,0.053868104,-0.0015029907,0.03286133,77.64127653,12.88207727,4.4
152179017738,-0.14213562,-0.8592041,9.665552,-0.034329224,8.1787107E-4,0.04055939,77.64127653,12.88207727,4.4
152179017759,-0.051686097,-1.0231079,9.543997,8.4991456E-4,-0.03191681,-0.038478088,77.64127653,12.88207727,4.4
152179017780,-0.36813658,-0.9062241,9.946352,0.028945923,-0.060136415,-0.012089538,77.64127653,12.88207727,4.4
152179017801,-0.58073884,-0.95539397,9.904599,-0.0015960693,-0.045599364,0.05985565,77.64125527,12.88211894,4.42
152179017823,-0.121917725,-0.7822708,10.080347,-9.155274E-6,-0.04511261,0.03017273,77.64125527,12.88211894,4.42
152179017844,-0.2384491,-1.000261,9.450678,0.0024368286,-0.0657547,0.040187072,77.64125527,12.88211894,4.42
152179017865,-0.36622316,-1.0936997,9.678116,0.0081741335,-0.1345398,0.04471283,77.64125527,12.88211894,4.42
152179017886,-1.0323852,-1.0745575,9.893109,0.023324585,-0.101550296,0.19839326,77.64125527,12.88211894,4.42
152179017908,-0.7225159,-0.9544388,10.046133,0.0081741335,0.016210938,0.2927124,77.64123392,12.88215638,4.07
152179017929,0.14069518,-1.4385026,9.83592,0.004144287,0.09072876,0.22771302,77.64123392,12.88215638,4.07
152179017950,-0.41264495,-1.325444,10.53343,-3.7994384E-4,0.100990295,0.13278809,77.64123392,12.88215638,4.07
152179017971,-0.082913205,-1.2865616,9.992772,-0.011489868,0.1179718,0.09515686,77.64123392,12.88215638,4.07
152179017993,-0.11306305,-1.5197418,9.545912,-0.011126709,0.19604187,0.08318939,77.64121248,12.88218824,4.33
152179018014,0.48203278,-1.0859238,9.991816,-0.021018982,0.18993226,-0.13865967,77.64121248,12.88218824,4.33
152179018035,0.22396545,-1.1575867,9.477117,0.03517761,0.08974914,-0.28734437,77.64121248,12.88218824,4.33
152179018056,-0.11916351,-1.2174072,10.267706,0.055700682,-0.031309508,-0.34940642,77.64121248,12.88218824,4.33
152179018078,-0.84263307,-1.0756317,9.423279,0.06046753,-0.11938934,-0.23762055,77.64121248,12.88218824,4.33
152179018099,-0.8636917,-0.83993834,10.122104,-0.014422608,-0.18230744,-0.09394379,77.64118798,12.8822183,4.15
152179018120,-1.0508102,-1.0996811,9.516359,-0.008560181,-0.15237427,-0.0033020019,77.64118798,12.8822183,4.15
152179018141,-1.1686585,-0.66669923,10.115761,0.065719604,-0.067222595,0.15306854,77.64118798,12.8822183,4.15
152179018163,-0.65359956,-0.8988037,9.294904,-0.009657288,0.048460387,0.15428925,77.64118798,12.8822183,4.15
152179018184,0.031344604,-0.7753326,10.623281,-0.103840634,0.095248416,0.05240326,77.64118798,12.8822183,4.15
152179018205,0.16127472,-0.77784574,9.5920925,0.11409912,0.044055175,-0.07317658,77.64116792,12.88225052,3.39
152179018226,-0.36885834,-0.6413361,10.459494,0.024061585,-0.01652832,-0.124240115,77.64116792,12.88225052,3.39
152179018248,-0.4813202,-0.47622985,9.100845,-0.05216675,-0.053053282,-0.06511078,77.64116792,12.88225052,3.39
152179018269,-0.57882845,-0.54011995,10.021608,0.041648865,0.0059494018,-0.0078125,77.64116792,12.88225052,3.39
152179018290,-0.15936431,-0.6613129,9.847166,-0.041661073,0.003868103,-0.034446716,77.64114559,12.88228194,3.82
152179018312,-0.28929442,-0.7740189,9.686491,0.017947387,0.020846557,-0.07342072,77.64114559,12.88228194,3.82
152179018333,0.19644928,-1.1207397,9.432968,0.010986328,-0.02715149,-0.11850281,77.64114559,12.88228194,3.82
152179018354,-0.12574463,-0.8211563,9.688884,0.016485596,-0.11364746,-0.1489212,77.64114559,12.88228194,3.82
152179018375,-0.38548738,-1.0456024,9.768204,-0.0011077881,-0.13197479,-0.018077087,77.64114559,12.88228194,3.82
152179018396,-0.66520536,-0.9679581,10.146872,-0.004649353,-0.08347015,0.07671051,77.64112764,12.88231411,3.46
152179018418,-0.35809022,-0.7254425,10.179652,-0.0064834594,-0.032037355,0.11910553,77.64112764,12.88231411,3.46
152179018439,-0.049534608,-0.9988235,9.413107,-0.0037948608,-0.002482605,0.08587494,77.64112764,12.88231411,3.46
152179018460,-0.04750061,-0.8497528,9.885933,0.008055115,0.0049713133,0.057897948,77.64112764,12.88231411,3.46
152179018482,-0.18448791,-0.731308,9.779093,0.021369934,0.018284608,0.053622436,77.64112764,12.88231411,3.46
152179018503,-0.019143676,-0.67579347,10.117317,0.0026763915,0.01694336,0.036161803,77.6411148,12.88234656,3.69
152179018524,-0.04510498,-0.745903,9.746073,-0.009048462,-0.002232361,0.0014678955,77.6411148,12.88234656,3.69
152179018545,-0.08530426,-1.1120026,9.561345,-0.0050186156,-0.018598938,-0.00231781,77.6411148,12.88234656,3.69
152179018567,-0.3110672,-1.0018142,9.672374,-0.009413147,-0.029714966,0.015275573,77.6411148,12.88234656,3.69
152179018588,-0.23222351,-0.80141294,9.9956455,0.013185119,-0.024464417,0.037867736,77.6411148,12.88234656,3.69
152179018609,-0.089494325,-0.9747757,9.477476,0.0024337769,-0.023974609,0.037010193,77.64109703,12.88238068,4.23
152179018630,-0.19621125,-1.0062408,9.987744,0.0117202755,-0.036193848,0.044947814,77.64109703,12.88238068,4.23
152179018652,-0.23533325,-1.0027726,9.939171,0.0117202755,-0.04547119,0.039697267,77.64109703,12.88238068,4.23
152179018673,-0.036734007,-1.2036483,9.876839,0.009031678,-0.07198944,0.050938416,77.64109703,12.88238068,4.23
152179018694,-0.10791626,-1.7541168,9.906154,0.002067566,-0.11450348,0.06877136,77.641078,12.88241476,4.07
152179018715,-0.59007263,-1.95775,9.835324,0.003656006,-0.13014221,0.18385772,77.641078,12.88241476,4.07
152179018737,-0.52941436,-2.286641,9.672493,0.016851807,-0.044015504,0.35025787,77.641078,12.88241476,4.07
152179018758,0.24921112,-1.9995025,10.04099,0.03004303,0.0026474,0.33657226,77.641078,12.88241476,4.07
152179018779,0.45906067,-2.275992,10.172354,0.033099364,-0.020674134,0.24481964,77.641078,12.88241476,4.07
152179018800,-0.48981172,-1.9969895,10.162781,0.061198425,2.0599365E-4,0.2974762,77.64105809,12.88244194,3.29
152179018822,0.283786,-1.7799622,9.030139,0.044218443,-0.02043457,0.34109497,77.64105809,12.88244194,3.29
152179018843,-0.16115876,-1.4210342,8.706151,-0.07257233,-0.01738434,0.3684555,77.64105809,12.88244194,3.29
152179018864,-0.8604584,-1.218364,10.198914,0.03321991,0.026960755,0.5079788,77.64105809,12.88244194,3.29
152179018885,0.3686142,-1.243132,9.653827,8.4533694E-4,-0.0043060305,0.3919159,77.64105809,12.88244194,3.29
152179018907,0.34229127,-1.3626525,9.311536,0.034318544,-0.022512818,0.26644439,77.64103955,12.88245554,2.4
152179018928,0.23353882,-1.1645263,8.879631,0.046292115,-0.104486085,0.1502594,77.64103955,12.88245554,2.4
152179018949,-0.5961731,-1.5672394,9.490999,-0.037995912,-0.1614151,0.22429809,77.64103955,12.88245554,2.4
152179018971,-1.0934006,-2.0480773,10.285055,-0.0031829835,-0.12549591,0.5147003,77.64103955,12.88245554,2.4
152179018992,-0.7067215,-1.699205,10.175344,0.10102387,0.010472107,0.8075485,77.64102015,12.88246036,2.3
152179019013,0.52665555,-1.5044266,9.549143,0.15270539,0.12811431,0.6864746,77.64102015,12.88246036,2.3
152179019034,0.4392044,-0.916391,9.672371,-0.006480408,0.12933502,0.3895935,77.64102015,12.88246036,2.3
152179019056,0.5493881,-1.385025,9.933429,-6.210327E-4,0.09292755,0.1647995,77.64102015,12.88246036,2.3
152179019077,-0.23796692,-0.55399626,9.347666,-0.06523438,0.08058777,0.10872193,77.64102015,12.88246036,2.3
152179019098,-0.046421815,-0.6994797,11.079114,0.012213135,0.10404511,0.09406128,77.64100328,12.88245778,1.94
152179019119,0.11018982,-0.7935196,8.626592,0.050201416,0.03941803,-0.050331116,77.64100328,12.88245778,1.94
152179019140,-0.20075989,-0.79148406,10.158714,0.11165619,-0.0027221679,-0.12974091,77.64100328,12.88245778,1.94
152179019162,-0.08614044,-0.34223327,9.588742,0.009155273,-0.046943665,-0.092112735,77.64100328,12.88245778,1.94
152179019183,-0.36957246,-0.2728409,9.870138,0.09638214,-0.051583864,-0.018687438,77.64100328,12.88245778,1.94
152179019204,-0.5124237,-0.714917,9.684697,0.013188171,-0.03680115,0.020765686,77.64098792,12.8824494,1.99
152179019225,-0.5995239,-0.044805907,9.34671,0.013305664,-0.019456482,0.07353668,77.64098792,12.8824494,1.99
152179019247,-0.52666014,-0.6078369,9.797636,-0.009538269,-0.0076141357,0.09064026,77.64098792,12.8824494,1.99
152179019268,-0.72957456,-0.52384794,9.708026,-0.01771698,0.042715453,0.12875824,77.64098792,12.8824494,1.99
152179019290,-0.14105988,-0.6712448,9.3176365,0.0030456544,0.102947995,0.1027359,77.64096655,12.88243927,3.03
152179019310,0.29012758,-0.5641678,10.080587,-0.01955719,0.0770462,-0.07024536,77.64096655,12.88243927,3.03
152179019332,-0.48287353,-0.38027802,9.969801,-0.021507263,0.037950136,-0.18032685,77.64096655,12.88243927,3.03
152179019353,-0.02871399,-0.44955444,10.107267,0.004023743,0.029640198,-0.13414307,77.64096655,12.88243927,3.03
152179019374,0.029551696,-0.5244461,10.056063,0.06706085,-0.0038253784,-0.19461365,77.64096655,12.88243927,3.03
152179019395,-0.15972443,-0.64540404,10.283501,0.035665892,-0.079071045,-0.22467498,77.64093896,12.88242557,3.37
152179019417,-0.82540435,-0.47970122,9.586949,0.08208771,-0.14296722,-0.15491028,77.64093896,12.88242557,3.37
152179019438,-0.87134856,-0.70666045,10.074486,0.020881653,-0.10167541,0.019056702,77.64093896,12.88242557,3.37
152179019459,-0.36598206,-0.49860686,9.211156,-0.033720396,-0.041693114,0.08318786,77.64093896,12.88242557,3.37
152179019481,-0.3159729,-0.78299105,9.528684,-0.0013519287,-0.007121277,0.05166931,77.64093896,12.88242557,3.37
152179019502,-0.14727935,-0.6588043,9.366092,-0.016131591,-0.008583069,0.020768737,77.6409061,12.88241389,3.77
152179019523,-0.5436493,-0.8219925,9.851355,0.01000824,0.037828065,0.03652191,77.6409061,12.88241389,3.77
152179019544,-0.26763916,-0.52970886,9.631215,-0.0041641234,0.020603944,-0.002079773,77.6409061,12.88241389,3.77
152179019566,-0.4124054,-0.49944153,10.394049,0.008666992,-0.048776247,-0.0725647,77.6409061,12.88241389,3.77
152179019587,-0.47497863,-0.6357101,9.92864,-0.0036758422,-0.09569092,-0.03176117,77.64086888,12.8824017,4.03
152179019608,-0.89156497,-0.86578065,9.967407,-0.017724609,-0.04853363,0.10370789,77.64086888,12.8824017,4.03
152179019629,-0.3523453,-0.97609407,9.316442,-0.029446412,0.05041351,0.18214722,77.64086888,12.8824017,4.03
152179019651,-0.07824707,-0.79256284,9.560028,-0.017845154,0.084617615,0.062057495,77.64086888,12.8824017,4.03
152179019672,0.05479431,-0.7778473,9.936778,-0.0073379516,0.081077576,-0.042756654,77.64086888,12.8824017,4.03
152179019693,0.16557923,-1.1374862,9.458336,0.0024337769,0.07216034,-0.07097931,77.64083165,12.88238651,4.02
152179019714,0.29886168,-0.98028105,9.618652,-0.019555664,0.030014038,-0.16236266,77.64083165,12.88238651,4.02
152179019736,-0.113421634,-0.900119,9.932472,0.040914916,-0.05696411,-0.19596405,77.64083165,12.88238651,4.02
152179019757,0.207695,-1.1803176,9.856619,0.022473145,-0.13173065,-0.1853302,77.64083165,12.88238651,4.02
152179019778,-0.6368515,-1.0380707,10.065872,0.005859375,-0.1641037,-0.06047058,77.64083165,12.88238651,4.02
152179019799,-0.05479889,-1.115831,9.4892025,0.02808838,-0.13185272,0.08147888,77.64079395,12.88237214,3.99
152179019821,-0.8195435,-1.3319031,10.55042,-0.005995178,-0.121708676,0.12716827,77.64079395,12.88237214,3.99
152179019842,-0.4573883,-1.0214355,9.315364,0.049713135,-0.067712404,0.24176636,77.64079395,12.88237214,3.99
152179019863,0.15792236,-0.7088135,10.049002,0.10982056,0.017182922,0.27536163,77.64079395,12.88237214,3.99
152179019884,0.16390686,-1.1204971,9.781606,-0.07513275,-0.026791383,0.11409302,77.64079395,12.88237214,3.99
152179019906,-0.20817718,-0.6834488,10.274887,-0.057296753,-0.12207947,0.11703186,77.64075805,12.88235971,3.93
152179019927,-0.4995041,-0.8667404,9.456781,0.1296173,-0.15836029,0.2194107,77.64075805,12.88235971,3.93
152179019948,-0.6247665,-1.4289337,10.476125,0.0152633665,-0.11364746,0.40242308,77.64075805,12.88235971,3.93
152179019969,-0.2739807,-0.51487577,9.864995,0.08648987,-0.034484863,0.45202485,77.64075805,12.88235971,3.93
152179019991,0.12286987,-0.6613159,9.770956,0.19656524,0.0474823,0.4321106,77.640727,12.88234385,3.74
152179020012,0.38213044,-0.90837556,10.546351,-0.0055038454,0.038319398,0.34830323,77.640727,12.88234385,3.74
152179020033,-0.09511719,-0.26602173,11.2307,0.102500916,-0.07687531,0.2246643,77.640727,12.88234385,3.74
152179020055,-0.7466812,-0.047799684,9.32386,0.16052398,-0.11328125,0.3697998,77.640727,12.88234385,3.74
152179020076,-0.18233642,-0.56380767,11.165495,-0.047039796,-0.08506165,0.45752564,77.640727,12.88234385,3.74
152179020097,-0.2837921,-0.7638489,7.704274,0.10432587,-0.058547974,0.56002504,77.64070512,12.8823228,3.22
152179020118,-0.70767516,-0.22342987,13.27345,0.15405425,0.12200775,0.64762574,77.64070512,12.8823228,3.22
152179020139,0.9765091,-1.9811966,9.080149,0.3072571,0.18052673,0.56100464,77.64070512,12.8823228,3.22
152179020161,1.0395615,-0.12963104,9.432254,0.08929443,0.18126221,0.2759781,77.64070512,12.8823228,3.22
152179020182,0.90855104,-0.23802796,8.562701,0.010987854,-0.013719177,0.093696594,77.64070512,12.8823228,3.22
152179020203,-0.31142578,0.19423981,10.154526,-0.04984436,-0.13771363,0.124240115,77.64069319,12.88229763,3.14
152179020224,-0.66664124,0.44883117,11.069061,0.07866669,-0.1270874,0.3342514,77.64069319,12.88229763,3.14
152179020246,-0.88355255,0.3028717,11.565453,0.09283905,0.011689758,0.54890597,77.64069319,12.88229763,3.14
152179020267,-0.09439697,0.35694733,11.366251,0.050816346,0.09866943,0.47279358,77.64069319,12.88229763,3.14
152179020288,-0.3787857,0.20476532,10.609403,0.028942872,0.18504485,0.43272248,77.64069098,12.88226955,3.03
152179020310,0.61220396,0.2861206,10.855265,-0.006359863,0.18296966,0.2506836,77.64069098,12.88226955,3.03
152179020331,-0.078244016,0.2653061,10.813632,0.0053665163,0.14667968,0.09674988,77.64069098,12.88226955,3.03
152179020352,0.57547456,-0.15679017,10.172949,-0.0086807255,0.06837311,0.03542633,77.64069098,12.88226955,3.03
152179020373,0.23760375,-0.23982087,9.118794,-0.02175293,0.029275512,-0.007937622,77.64069098,12.88226955,3.03
152179020394,0.9074753,-0.98291016,8.446409,0.003656006,0.009977723,0.037623595,77.64069892,12.88224229,2.84
152179020416,0.29981995,-0.8498703,7.178693,0.01244812,0.013882446,0.0051315306,77.64069892,12.88224229,2.84
152179020437,-1.0657638,0.09685059,9.672731,-0.012835694,0.0057006837,0.029930115,77.64069892,12.88224229,2.84
152179020458,0.26692048,-0.7938782,10.075203,-0.008802796,0.004722595,-0.0035369874,77.64069892,12.88224229,2.84
152179020479,-0.30628052,-0.9098114,9.315363,0.0025543212,-0.018722534,-0.02247467,77.64069892,12.88224229,2.84
152179020501,-0.42305452,-0.5821136,9.994926,0.020639038,2.0599365E-4,0.024923706,77.64071345,12.88220776,3.93
152179020522,0.047377013,-0.47586975,9.794645,-0.011730957,0.038565062,0.044467162,77.64071345,12.88220776,3.93
152179020543,0.046182252,0.09553375,9.846929,0.024909973,0.011811828,-0.0883255,77.64071345,12.88220776,3.93
152179020565,-0.23772582,-0.21457824,10.479114,0.028208923,-0.059405517,-0.10164185,77.64071345,12.88220776,3.93
152179020586,-0.08004455,-0.5324646,9.407725,-0.036535643,-0.11608887,-0.06718902,77.64071345,12.88220776,3.93
152179020607,-0.5436508,-0.22737733,9.921107,-0.009414673,-0.093487546,0.0730484,77.64073259,12.88216665,4.21
152179020628,-0.5818176,-0.70905304,9.9313965,0.003289795,-0.017018128,0.15636902,77.64073259,12.88216665,4.21
152179020650,-0.40115815,-1.0331604,9.920987,-0.12289734,0.07557984,0.17652588,77.64073259,12.88216665,4.21
152179020671,0.32350618,-0.6353531,9.486569,0.046907045,0.09622498,0.060835265,77.64073259,12.88216665,4.21
152179020692,0.31286162,-1.383229,10.143758,0.06413422,0.04149475,-0.07965088,77.64075131,12.88212693,4.28
152179020713,-0.21296234,-1.2404999,9.670337,-0.078063965,-0.044255067,-0.09834137,77.64075131,12.88212693,4.28
152179020735,-0.47294158,-1.2527008,9.646649,-0.015516663,8.1787107E-4,-0.011604309,77.64075131,12.88212693,4.28
152179020756,0.83581084,-2.72321,10.450636,-0.25448304,-0.0049194335,0.021865845,77.64075131,12.88212693,4.28
152179020777,-0.14094086,-0.09266205,6.3330674,0.30298004,0.0016723633,-0.17849274,77.64075131,12.88212693,4.28
152179020798,-0.597847,-1.4468796,8.704356,0.033961486,0.045407105,0.025897216,77.64077146,12.88209047,3.68
152179020820,-0.65108645,0.5096115,9.42412,-0.10225372,-0.088601686,-0.010505676,77.64077146,12.88209047,3.68
152179020841,-0.47964174,-0.07387848,9.02607,0.14586487,0.029524231,-0.046784975,77.64077146,12.88209047,3.68
152179020862,0.23461457,0.08345032,10.409601,-0.04508362,-0.06820373,4.8675537E-4,77.64077146,12.88209047,3.68
152179020883,-0.13388062,0.11431732,9.047846,0.058023073,-0.058795165,-0.10200653,77.64077146,12.88209047,3.68
152179020905,1.1749267E-4,-0.8465195,8.752932,-0.008801269,-0.09055634,0.05142517,77.64078839,12.88205612,3.46
152179020926,0.15337983,-0.6176468,7.304793,0.0017028808,-0.08200531,0.058628846,77.64078839,12.88205612,3.46
152179020947,-1.1505921,-0.16660157,9.242622,0.024916077,-0.0010147095,0.2070694,77.64078839,12.88205612,3.46
152179020968,-1.1513062,0.88109744,11.216458,-0.019798279,0.060552977,0.16687623,77.64078839,12.88205612,3.46
152179020990,0.17371674,-0.26123658,10.398952,-0.023341369,0.13226776,0.15416718,77.64080708,12.88202422,3.73
152179021011,0.92781675,-0.7442276,9.342522,-0.012348938,0.10979004,-0.021257019,77.64080708,12.88202422,3.73
152179021032,0.013278198,-0.9020325,9.833766,-0.03262787,0.03477478,-0.15783843,77.64080708,12.88202422,3.73
152179021053,0.058383178,-1.2268616,10.919273,-0.017471313,-0.009320068,-0.106774904,77.64080708,12.88202422,3.73
152179021075,0.066999815,-0.29497224,8.365173,0.19986114,-0.056962587,-0.14440003,77.64080708,12.88202422,3.73
152179021096,-0.9675385,-1.2140579,12.73662,-0.14525756,-0.10827637,-0.07525329,77.64082603,12.88199106,3.75
152179021117,-0.38716125,-0.19998017,8.446772,-0.006968689,-0.118774414,0.033959962,77.64082603,12.88199106,3.75
152179021138,-0.8021973,-0.8528595,10.788147,0.0057357787,0.07496643,0.20291749,77.64082603,12.88199106,3.75
152179021160,0.9031723,-0.6671799,8.640228,-0.017102052,0.056523133,0.07341766,77.64082603,12.88199106,3.75
152179021181,0.037324525,-0.6793808,9.98009,0.08868561,-0.026295472,-0.2243042,77.64082603,12.88199106,3.75
152179021202,-0.386203,-0.5914459,8.98719,-0.09076996,-0.032650758,0.066453554,77.64084414,12.8819621,3.37
152179021223,0.13256225,-0.11348114,9.67596,0.053744506,-0.06270294,-0.08062897,77.64084414,12.8819621,3.37
152179021245,-1.1009384,-0.34175262,10.69339,-0.20121154,0.05053711,0.16100922,77.64084414,12.8819621,3.37
152179021266,0.18041535,0.19244233,8.6975355,0.12253418,0.25346375,0.11128998,77.64084414,12.8819621,3.37
152179021288,2.024086,-2.542195,10.105711,0.104457095,0.2105835,-0.24752045,77.64085984,12.88193592,3.28
152179021308,0.63397676,-0.3398407,9.48908,-0.013442993,-0.18438569,-0.62184906,77.64085984,12.88193592,3.28
152179021330,-1.2727432,-0.68368685,9.896101,0.042630006,-0.30093384,-0.39363557,77.64085984,12.88193592,3.28
152179021351,-0.75326234,-0.85381925,10.892596,-0.05167694,-0.31254426,0.011361694,77.64085984,12.88193592,3.28
152179021372,-1.7605194,-0.7127625,9.06017,0.015144348,-0.11560516,0.30138856,77.64085984,12.88193592,3.28
152179021394,-0.32159728,-1.0886749,9.022601,-0.04447937,0.0706955,0.43052062,77.64087195,12.88190923,3.19
152179021415,-0.1365097,0.029013062,11.297099,0.038238525,0.17845154,0.37542266,77.64087195,12.88190923,3.19
152179021436,0.7483536,0.32572633,8.5240555,0.31250763,0.11430969,-0.0050109862,77.64087195,12.88190923,3.19
152179021457,0.0613739,-2.0291717,12.021764,-0.13927154,0.09231873,-0.17738342,77.64087195,12.88190923,3.19
152179021478,0.021891784,0.47300416,7.5056715,-0.09407654,-0.13160706,-0.17592315,77.64087195,12.88190923,3.19
152179021500,-1.3171295,0.1195816,11.693949,0.1211853,-0.030087281,-0.020646667,77.64088493,12.88188513,3.05
152179021521,-0.3586853,0.07124786,9.494702,-0.10823822,-0.03667755,0.072315976,77.64088493,12.88188513,3.05
152179021542,-0.21188506,0.4202423,10.664436,0.04702606,0.009490967,-0.02467804,77.64088493,12.88188513,3.05
152179021563,-0.36909485,0.093141176,9.689484,0.05582428,-0.015185547,0.035302736,77.64088493,12.88188513,3.05
152179021585,-0.0496521,-0.14111634,7.7481856,0.12631683,-0.07919769,-0.05142975,77.64088493,12.88188513,3.05
152179021606,-0.21727142,-0.62482756,10.8081255,-0.10995331,-0.09385376,-0.0042785644,77.64090057,12.88185985,3.22
152179021627,-0.3296112,-0.10498504,7.620645,-0.061576843,-0.062457275,0.13229981,77.64090057,12.88185985,3.22
152179021648,0.53419495,-0.53652954,9.403897,-0.07659912,0.017677307,0.18532105,77.64090057,12.88185985,3.22
152179021670,-0.07896423,-0.7113266,6.872411,0.05936432,0.074848935,0.20572357,77.64090057,12.88185985,3.22
152179021615,-1.3676193,0.40265352,11.171839,0.036766052,0.21192017,0.16638489,77.64091836,12.88183124,3.59
152179021637,1.2378067,0.20584412,10.099492,-0.077211,0.10453339,-0.13866273,77.64091836,12.88183124,3.59
152179021658,0.29766542,-0.32596284,8.236677,0.041407775,0.027937317,-0.21074066,77.64091836,12.88183124,3.59
152179021679,-0.61890256,0.8002182,11.706271,-0.037509155,-0.08982392,-0.21868439,77.64091836,12.88183124,3.59
152179021700,-0.011247253,-0.43997803,8.628146,-4.989624E-4,-0.10802917,-0.097242735,77.64091836,12.88183124,3.59
152179021721,-1.1519058,0.3929596,10.31724,0.034318544,-0.039494324,0.04824829,77.64093857,12.88180075,3.87
152179021743,0.19656983,-0.50087583,8.511493,-0.043499757,0.048213195,0.045318604,77.64093857,12.88180075,3.87
152179021764,0.44243163,0.3768097,10.91066,-0.045455933,0.043814085,-0.066575624,77.64093857,12.88180075,3.87
152179021785,-0.6016754,0.4153351,10.189342,0.111653134,-0.0035751343,-0.12460937,77.64093857,12.88180075,3.87
152179021807,-0.04498749,0.2824127,10.883861,0.016485596,-0.08909454,-0.1390274,77.64093857,12.88180075,3.87
152179021828,-0.11509552,-0.2225937,8.878195,-0.025543213,-0.16569519,-0.10787354,77.64096016,12.88176716,4.23
152179021849,-0.5562118,-0.26410827,9.626192,0.02735443,-0.13062744,0.081604004,77.64096016,12.88176716,4.23
152179021870,-1.0192245,-0.43495637,10.177856,0.01013031,0.03355713,0.24018097,77.64096016,12.88176716,4.23
152179021892,-0.15290222,-0.7370499,10.006172,-0.03701935,0.1741745,0.17787018,77.64096016,12.88176716,4.23
152179021913,0.85339963,-1.0609176,10.605452,-0.034330748,0.09170685,-0.16761169,77.64098326,12.8817302,4.66
152179021934,0.14727783,-0.60819703,9.61315,0.015626526,-0.06160736,-0.20072937,77.64098326,12.8817302,4.66
152179021955,-1.4797226,-0.9561142,10.700091,0.0756134,-0.11462402,-0.04923706,77.64098326,12.8817302,4.66
152179021977,-0.18508759,-1.1126007,10.777258,0.026257325,-0.06343536,0.06804047,77.64098326,12.8817302,4.66
152179021998,-0.44028014,-0.6410965,10.224876,0.07732391,0.025128175,0.120083615,77.64098326,12.8817302,4.66
152179022019,0.038999937,-1.3213761,9.098813,-0.03787384,0.05114899,0.0520401,77.64100534,12.88169367,4.41
152179022040,-0.0067001344,-0.74147797,10.140289,-0.1701767,-0.0073638917,-0.07720642,77.64100534,12.88169367,4.41
152179022062,-0.04498596,-0.76289064,9.345154,0.09724121,-0.049263,-0.11165772,77.64100534,12.88169367,4.41
152179022083,-0.10779877,-0.7590622,10.629021,-0.058279417,-0.121586606,-0.015391541,77.64100534,12.88169367,4.41
152179022104,-0.7736023,-0.70726013,9.813426,-0.023701478,-0.05684204,0.1186142,77.64100534,12.88169367,4.41
152179022125,0.20027772,-1.037709,11.136063,0.03554535,-0.028738404,0.091127016,77.6410246,12.88166061,3.83
152179022147,-0.5353958,-0.930867,9.495779,-0.020526122,-0.048776247,0.09455109,77.6410246,12.88166061,3.83
152179022168,-0.29000854,-1.1858231,10.051396,0.02845459,0.022312928,0.2129364,77.6410246,12.88166061,3.83
152179022189,-0.30412903,-0.8303711,9.896937,0.037008666,0.08083496,0.20743561,77.6410246,12.88166061,3.83
152179022210,-0.063771054,-0.47814482,9.893709,-0.001348877,0.14290008,0.19509582,77.6410246,12.88166061,3.83
152179022232,0.69164276,-1.0801818,9.909143,-0.026272584,0.12041626,-0.033351135,77.6410449,12.88163341,3.37
152179022253,0.16629791,-0.8801392,8.267786,0.0042663575,0.045283508,-0.16211548,77.6410449,12.88163341,3.37
152179022274,0.3833267,-1.752443,9.617335,-0.33034667,0.025857544,-0.19388428,77.6410449,12.88163341,3.37
152179022295,-0.6479767,-0.42000276,8.693949,0.2539917,0.07558136,-0.16492614,77.6410449,12.88163341,3.37
152179022317,0.7798187,-0.2106247,6.668185,0.29979858,-0.021168519,-0.3031021,77.64106326,12.8816119,2.68
152179022338,0.29742432,-3.0497117,14.318396,-0.20463867,-0.05391388,-0.4699936,77.64106326,12.8816119,2.68
152179022359,-0.6373291,2.3779283,6.9800887,-0.013568115,-0.14003906,-0.44360352,77.64106326,12.8816119,2.68
152179022380,-0.6129242,0.11611481,11.879517,0.12657014,-0.09092407,-0.09406738,77.64106326,12.8816119,2.68
152179022402,-0.99098665,1.6793396,9.711253,-0.029814148,-0.15921783,0.013560486,77.64106326,12.8816119,2.68
152179022423,-1.6682785,0.758345,11.127329,0.14842987,-0.055371094,0.22282867,77.64107487,12.8815931,2.22
152179022444,0.033496093,0.0018554687,10.605092,-0.16174622,0.05774536,0.42453307,77.64107487,12.8815931,2.22
152179022466,0.50189364,0.46211547,8.074684,0.05692444,0.15095825,0.19399413,77.64107487,12.8815931,2.22
152179022487,0.33068696,-0.34366912,10.468104,-0.0164917,0.10270081,-0.05375061,77.64107487,12.8815931,2.22
152179022508,0.016989136,0.8009384,8.980609,-0.07317658,-0.008952332,-0.10127716,77.64107487,12.8815931,2.22
152179022529,-0.30484772,0.10498504,10.9370985,0.10371552,0.07582398,-0.07354126,77.64108728,12.88157175,2.97
152179022550,0.4284317,0.369989,9.608244,-0.025906373,-0.00614624,-0.15539856,77.64108728,12.88157175,2.97
152179022572,-0.17874603,0.49465638,10.168164,0.09736176,-0.08848114,-0.23676758,77.64108728,12.88157175,2.97
152179022593,-5.996704E-4,-0.35778657,9.097977,-0.09944458,-0.17216492,-0.14941406,77.64108728,12.88157175,2.97
152179022614,-0.951149,0.4186844,9.367647,0.05215912,-0.1752243,0.045323182,77.64110137,12.88154378,3.56
152179022635,-0.563031,-0.34773713,10.070895,0.022233581,-0.07125397,0.15673828,77.64110137,12.88154378,3.56
152179022657,-0.1409378,0.2164917,9.406771,-0.044828795,-0.0052871704,0.16711883,77.64110137,12.88154378,3.56
152179022678,0.025242615,-0.08296814,9.162222,0.11410217,0.07716827,0.15795287,77.64110137,12.88154378,3.56
152179022699,0.4465027,-0.13525543,10.330635,-0.077819824,0.018165588,-0.012701416,77.64110137,12.88154378,3.56
152179022721,-0.18807678,0.49657136,10.030935,0.060591124,-0.07321014,-0.023208618,77.6411181,12.88150983,4.23
152179022742,-0.4090561,-0.06574402,9.591855,-0.002204895,-0.08591614,0.075488284,77.6411181,12.88150983,4.23
152179022763,-0.5839691,0.5490936,10.283499,-0.006726074,0.0138900755,0.19460602,77.6411181,12.88150983,4.23
152179022784,-0.1326828,-1.0185654,9.056819,0.15209655,0.12969819,0.18214722,77.6411181,12.88150983,4.23
152179022806,-0.2868988,-0.5868988,9.144873,-0.29161987,0.10526733,0.089544676,77.6411181,12.88150983,4.23
152179022827,-0.09343872,0.34725648,9.838076,0.12815246,0.10318909,-0.022232056,77.64114109,12.88147272,4.71
152179022848,0.35102692,-1.0319626,10.774027,0.08526764,0.15254669,-0.04776459,77.64114109,12.88147272,4.71
152179022869,0.3548538,-0.19005127,9.123098,-0.057791136,0.0024093627,-0.21049957,77.64114109,12.88147272,4.71
152179022891,-0.20626068,-0.5738586,10.013109,0.112141415,-0.065020755,-0.182518,77.64114109,12.88147272,4.71
152179022912,0.045700073,-0.38004,9.451036,-0.061694335,-0.13258514,-0.09553528,77.64116578,12.88141809,5.13
152179022933,-0.29395905,-0.3206955,9.453906,0.033465575,-0.09532013,-0.021618653,77.64116578,12.88141809,5.13
152179022954,-0.15206452,-0.4832901,9.991575,0.025401305,-0.06404571,0.020646667,77.64116578,12.88141809,5.13
152179022976,-0.22348937,-0.5484955,9.824437,-0.01576538,-0.018482972,0.0692627,77.64116578,12.88141809,5.13
152179022997,-0.13591309,-0.46175537,10.442024,-0.023223877,0.01449585,0.032250978,77.64116578,12.88141809,5.13
152179023018,-0.17886353,-0.1706665,9.818097,0.006465149,-0.016036987,-0.019908141,77.64118929,12.88137196,5.27
