timestamp,accx,accy,accz,gyrx,gyry,gyrz,longitude,latitude,speed
152179080589,-0.16223755,-0.13920136,9.595205,-0.0018753052,-0.008518982,-0.0047058105,77.64214609,12.88455241,0.0
152179080610,-0.24897766,-0.6695709,9.801704,-2.471924E-4,-2.2277833E-4,1.8310547E-4,77.64214609,12.88455241,0.0
152179080631,-0.2260025,-0.661557,9.806372,-2.5024413E-4,0.0051498413,5.493164E-4,77.64214385,12.8845535,0.0
152179080652,-0.27409974,-0.65868074,9.803021,-6.210327E-4,0.013452148,-6.1035156E-5,77.64214385,12.8845535,0.0
152179080673,-0.29527742,-0.67184293,9.800032,8.5296633E-4,0.0089355465,3.0517578E-4,77.64214385,12.8845535,0.0
152179080695,-0.29060975,-0.6609558,9.811038,0.0014556885,0.047535706,7.9345703E-4,77.64214385,12.8845535,0.0
152179080716,-0.5198425,-0.6529404,9.785074,-9.857178E-4,0.048146058,0.003968811,77.64214273,12.88455405,0.0
152179080737,-0.558844,-0.6658615,9.806371,-7.415771E-4,0.032878112,0.0015258789,77.64214273,12.88455405,0.0
152179080758,-0.635173,-0.6633499,9.796681,-0.0015945435,0.022245789,0.002380371,77.64214273,12.88455405,0.0
152179080780,-0.67717284,-0.6779434,9.78747,-0.0020874024,0.00466156,5.493164E-4,77.64214273,12.88455405,0.0
152179080801,-0.6221374,-0.6735214,9.79381,2.3498535E-4,-0.021235656,0.0025054931,77.64214273,12.88455405,0.0
152179080822,-0.020100404,-0.6495911,9.85291,0.0152633665,-0.036627196,-0.055404663,77.6421415,12.8845548,0.0
152179080843,-0.024645995,-0.5444275,9.797879,0.016119385,-0.0040100096,-0.171344,77.6421415,12.8845548,0.0
152179080865,-1.2827927,-0.6117859,9.7350645,-0.0028152466,0.061338805,-0.13030091,77.6421415,12.8845548,0.0
152179080886,-0.8992249,-0.6580841,9.880069,-0.0014709473,0.03299408,0.008001709,77.6421415,12.8845548,0.0
152179080907,-0.70073855,-0.6223129,9.452353,0.0024353028,0.013697815,0.0021347045,77.6421415,12.8845548,0.0
152179080928,-0.8365326,-0.5413162,9.54938,0.013183594,0.038128663,-0.003237915,77.64214088,12.88455518,0.0
152179080950,-0.97507477,-0.4503891,10.811956,0.0025588989,0.043013,-0.025227357,77.64214088,12.88455518,0.0
152179080971,-1.3899933,-0.33673096,11.464119,0.011474609,0.022981262,-0.058459472,77.64214088,12.88455518,0.0
152179080993,-1.018747,0.4668991,10.478157,6.011963E-4,0.06659241,-0.08716889,77.64214088,12.88455518,0.0
152179081014,-0.58612365,0.3254837,10.074247,0.017947387,-0.035891723,-0.20311585,77.64214138,12.88455576,0.0
152179081035,-0.7487122,0.73693085,9.47652,0.0565567,-0.08463745,-0.2318283,77.64214138,12.88455576,0.0
152179081056,-0.93104553,0.7005585,10.011436,0.045802306,-0.036990356,-0.15717773,77.64214138,12.88455576,0.0
152179081077,-0.7025345,0.91339874,9.679431,-0.0024520874,-0.011096192,-0.09510956,77.64214138,12.88455576,0.0
152179081099,-0.8377258,0.76049805,10.336861,0.031022644,-0.04419861,-0.17000274,77.64214138,12.88455576,0.0
152179081120,-0.21427612,0.24460754,9.084216,-0.0025756836,-0.078164674,-0.12150268,77.64214239,12.88455671,0.0
152179081141,-0.889891,0.6586822,10.765414,-0.005140686,-0.11945496,-0.08740997,77.64214239,12.88455671,0.0
152179081162,0.1081543,0.51164705,10.10248,0.008787537,-0.12984009,-0.070553586,77.64214239,12.88455671,0.0
152179081184,-0.46121827,0.59551543,7.661803,0.11739807,-0.022943115,0.29509124,77.64214239,12.88455671,0.0
152179081205,-0.058148194,1.4002212,10.287329,0.060951233,0.015899658,0.21910095,77.64214239,12.88455671,0.0
152179081226,0.19812623,0.46845704,10.480072,-0.10994873,0.0695221,0.19258575,77.64214062,12.88455662,0.0
152179081248,0.32781523,0.8002197,9.194285,-0.042027283,-0.04212494,0.0020095825,77.64214062,12.88455662,0.0
152179081269,0.12155304,-0.55579376,8.924736,-0.13133545,-0.046401978,0.04953003,77.64214062,12.88455662,0.0
152179081290,-1.4493363,0.62291414,9.647127,0.0559494,0.10605011,0.25782624,77.64214062,12.88455662,0.0
152179081311,-0.21738891,0.28659973,9.787709,-0.15491334,0.17458649,0.15129395,77.64213313,12.88455017,1.7
152179081333,0.33726653,0.33098602,9.589938,0.023088073,0.18216553,-0.09633331,77.64213313,12.88455017,1.7
152179081354,0.6449814,-0.59694827,9.1314745,0.11703491,0.08724213,-0.29608306,77.64213313,12.88455017,1.7
152179081375,-0.90209657,0.7764114,10.070178,0.07524566,-0.074990846,-0.29046327,77.64213313,12.88455017,1.7
152179081396,-0.42975157,-0.5364105,9.818335,0.073049925,-0.08182831,-0.17342071,77.64213313,12.88455017,1.7
152179081417,-0.61363983,-0.38386688,9.299452,-0.05058136,-0.06105957,-0.08851166,77.64211742,12.88453925,1.92
152179081439,-0.65587157,-0.52013856,10.623279,-0.028471375,-0.010119629,0.011662292,77.64211742,12.88453925,1.92
152179081460,0.2239685,-0.80548555,10.265671,-0.025787354,-0.03980408,-0.07666168,77.64211742,12.88453925,1.92
152179081481,-0.85663146,-1.1677551,9.733988,0.036764525,-0.040657043,-0.07825317,77.64211742,12.88453925,1.92
152179081503,-0.101696774,-1.0702499,9.718674,0.012333679,0.02212677,0.050872803,77.64211742,12.88453925,1.92
152179081524,0.44626158,-0.7096527,10.459253,0.006588745,0.034950256,-0.047221374,77.64208491,12.88452549,4.27
152179081545,0.33642882,-0.99380034,9.476759,0.0136734005,-0.12617645,-0.28582305,77.64208491,12.88452549,4.27
152179081566,-0.86895597,-1.1840286,9.994806,-0.010514831,-0.090625,0.050875854,77.64208491,12.88452549,4.27
152179081588,0.058026124,-0.91746825,9.633728,-0.010269165,-0.048846435,0.07176056,77.64208491,12.88452549,4.27
152179081609,0.207695,-1.2347549,10.093149,-0.011616516,-0.03504028,0.0940033,77.64208491,12.88452549,4.27
152179081630,0.037924193,-1.0774276,9.772392,0.010739136,-0.084150694,-0.020098876,77.64204169,12.88450979,4.37
152179081651,-0.8707489,-0.9313446,9.625116,0.02368927,-0.008288574,0.24157715,77.64204169,12.88450979,4.37
152179081673,-0.2715866,-1.1921647,10.003062,-0.005995178,0.13782044,0.27871856,77.64204169,12.88450979,4.37
152179081694,0.8188232,-0.791008,9.53287,0.050082397,0.10287781,0.08361359,77.64204169,12.88450979,4.37
152179081715,0.38105622,-1.3120422,11.58627,-0.15466766,0.03996277,-0.11856232,77.64200181,12.88449476,3.82
152179081736,-0.12359009,0.23371887,5.899849,0.13316497,-0.07291412,-0.12284698,77.64200181,12.88449476,3.82
152179081758,-0.12550506,-2.2433305,11.784877,0.06267242,-0.098329164,0.049168397,77.64200181,12.88449476,3.82
152179081779,-0.30903473,1.8469574,6.906987,-0.09626923,-0.09294891,0.12490845,77.64200181,12.88449476,3.82
152179081800,-0.41994172,0.18059845,10.138136,0.21953888,0.012722778,0.12343903,77.64200181,12.88449476,3.82
152179081821,-0.52773744,0.6992432,10.445613,-0.15197602,-0.05715332,0.13834229,77.64196974,12.88448115,2.91
152179081843,-0.54317015,0.20345154,9.143202,0.12509307,0.010397339,0.25110778,77.64196974,12.88448115,2.91
152179081864,-0.3212387,0.69541323,10.699374,-0.0096557615,0.10971832,0.22446899,77.64196974,12.88448115,2.91
152179081885,0.3007782,0.7290344,9.537059,-0.017228698,0.09175873,0.042811584,77.64196974,12.88448115,2.91
152179081906,-0.69368136,0.18765716,9.929123,0.024916077,0.055107117,0.0068969727,77.64196974,12.88448115,2.91
152179081928,-0.36957398,0.38889313,9.730159,-0.05216522,0.11326294,0.081652835,77.64194316,12.88446807,2.89
152179081949,0.22313079,0.412706,9.969919,0.01184082,0.12584686,-0.05919037,77.64194316,12.88446807,2.89
152179081970,-0.036013793,0.20500489,9.879352,0.005123901,0.0040512085,-0.19004059,77.64194316,12.88446807,2.89
152179081991,-0.48801726,0.40743715,10.122702,0.026132202,-0.063015744,-0.1067215,77.64194316,12.88446807,2.89
152179082013,-0.21643218,0.31064758,9.513249,0.061076354,-0.09441223,-0.07067718,77.64190642,12.88444554,3.96
152179082034,-0.7524231,-0.27559203,9.884974,-0.1606491,-0.06606903,0.016427612,77.64190642,12.88444554,3.96
152179082055,-0.13974304,0.6687347,9.604297,0.084414676,0.0020935058,0.039752197,77.64190642,12.88444554,3.96
152179082077,0.045103453,0.07088928,10.504598,0.028578186,-0.076696776,-0.082279965,77.64190642,12.88444554,3.96
152179082098,-0.72095793,0.059521485,8.786432,-0.01625061,-0.093925476,0.05343933,77.64190642,12.88444554,3.96
152179082119,-0.16211548,0.044807434,10.427309,-0.009779358,-0.0043762205,0.10853271,77.64181631,12.88439693,5.08
152179082140,-0.22528534,0.1631302,10.067189,0.048858643,-0.01927948,0.024980163,77.64181631,12.88439693,5.08
152179082161,-0.26847535,-1.1191833,9.73315,-0.068049625,-0.06045227,0.028768921,77.64181631,12.88439693,5.08
152179082183,-0.53994447,-0.69158477,10.007009,0.017463684,0.038375854,0.16668701,77.64181631,12.88439693,5.08
152179082204,-0.11605225,-0.89055026,9.961665,0.013066101,0.1149704,0.09802856,77.64181631,12.88439693,5.08
152179082225,0.13626862,-1.0905869,9.139612,-0.028105164,0.121817015,0.022416687,77.64176598,12.884369,5.9
152179082246,-0.04690094,-0.94044036,10.367128,0.013183594,0.10226746,-0.021684265,77.64176598,12.884369,5.9
152179082268,0.6403168,-1.9468597,7.441663,-0.08087921,0.06378174,-0.06224823,77.64176598,12.884369,5.9
152179082289,0.49340057,-0.21361694,9.124535,0.06803894,0.088581845,-0.07690887,77.64176598,12.884369,5.9
152179082310,0.027636718,-1.7968277,10.978493,0.005493164,0.087120056,-0.07336731,77.64171751,12.88434131,5.9
152179082331,0.19549103,-0.60401,8.325215,0.037008666,0.07978821,-0.11685638,77.64171751,12.88434131,5.9
152179082353,-0.44387206,-0.2593216,10.3728695,0.015261841,0.07807922,-0.13725738,77.64171751,12.88434131,5.9
152179082374,0.59473264,-0.31100768,9.521625,0.038598634,-0.08903961,-0.31306762,77.64171751,12.88434131,5.9
152179082395,-0.61926425,-0.14386597,9.845851,0.034687806,-0.26215515,-0.24428101,77.64171751,12.88434131,5.9
152179082416,-0.84933317,-0.20524445,9.379849,0.03529968,-0.23075715,0.016183471,77.64166723,12.88432198,6.1
152179082438,-0.575235,-0.21266326,9.898256,-0.020040894,-0.140596,0.106089786,77.64166723,12.88432198,6.1
152179082459,-0.90293425,0.1957962,10.088603,0.024794007,0.027992249,0.17658386,77.64166723,12.88432198,6.1
152179082480,0.55453646,-0.5340179,10.106552,-0.005873108,0.08394165,0.06724701,77.64166723,12.88432198,6.1
152179082501,-0.15051118,-0.2594406,9.891794,0.0058517456,0.019441223,-0.022660827,77.64166723,12.88432198,6.1
152179082523,0.040797424,-0.2435318,9.819174,0.012329102,-0.034547426,0.0010375977,77.64160963,12.88429393,5.9
152179082544,-0.030270386,-0.19543305,9.538256,4.7912597E-4,-0.041148376,0.021192933,77.64160963,12.88429393,5.9
152179082565,-0.2809189,-0.4019348,9.479991,-0.016870117,-0.036750793,0.04268799,77.64160963,12.88429393,5.9
152179082586,0.00657959,-0.44967192,9.823239,-0.0155181885,-0.0161026,0.06797485,77.64160963,12.88429393,5.9
152179082608,-0.050610352,-0.6888321,8.184993,0.03224335,-0.032717895,0.04953003,77.64160963,12.88429393,5.9
152179082629,-0.3633499,-0.94905394,9.942522,-0.06658478,-0.036384583,0.048426818,77.64155681,12.88427315,5.88
152179082650,-0.17144775,-0.7955551,10.249402,0.042625427,-0.012437439,0.09020843,77.64155681,12.88427315,5.88
152179082671,0.81200254,-1.3817947,8.595602,0.004753113,-0.057032775,0.06357422,77.64155681,12.88427315,5.88
152179082693,-1.6284363,-0.82618105,11.387909,0.00683136,-0.012930298,0.15447235,77.64155681,12.88427315,5.88
152179082714,-0.62739867,-0.7800018,11.273886,0.025160218,0.13366088,0.24598083,77.64150076,12.88424852,5.86
152179082735,1.2034668,-0.85441434,8.88322,-0.0070907595,0.19890594,0.051849365,77.64150076,12.88424852,5.86
152179082756,-0.33703002,-0.51343995,10.112295,-2.5177002E-4,0.0978714,-0.058335878,77.64150076,12.88424852,5.86
152179082778,0.5314438,-0.6237472,8.528842,-0.009294128,0.050585937,-0.05552826,77.64150076,12.88424852,5.86
152179082799,-0.94600374,-0.69338226,10.985197,0.013430786,0.034461975,-0.06566925,77.64150076,12.88424852,5.86
152179082820,-0.06724091,-1.4472367,10.86747,-9.857178E-4,0.030307006,-0.07238464,77.64146667,12.88421704,5.65
152179082841,0.3650238,-1.1372483,9.696539,0.018559266,-9.536743E-4,-0.10097809,77.64146667,12.88421704,5.65
152179082863,0.3649063,-1.6292145,9.596281,-0.012957764,-0.07999726,-0.12748718,77.64146667,12.88421704,5.65
152179082884,-0.5200821,-1.1422714,11.068944,0.011351014,-0.092581175,-0.04135437,77.64146667,12.88421704,5.65
152179082905,-0.87505496,-0.03188324,11.250679,-0.001965332,-0.04041443,0.027542114,77.64146667,12.88421704,5.65
152179082926,-0.18161622,-1.138086,9.17993,-0.009539795,0.058898926,0.08410034,77.6414133,12.88419239,5.78
152179082948,0.15637207,-0.76492614,8.662122,-0.027496338,0.13964844,0.051609803,77.6414133,12.88419239,5.78
152179082969,0.45475617,-0.5000397,10.969523,0.023449708,0.052423097,-0.16023102,77.6414133,12.88419239,5.78
152179082990,-1.6018753,0.04923401,10.441305,0.03224335,-0.044810485,-0.14337158,77.6414133,12.88419239,5.78
152179083011,-1.1021347,0.107377626,11.404897,-0.01882019,-0.042489626,-0.012892151,77.64138098,12.88417655,5.35
152179083033,0.6888916,-0.9388855,8.574423,-0.002330017,-0.07816315,-0.066157535,77.64138098,12.88417655,5.35
152179083054,-1.1319244,-0.35359955,10.525772,-0.022120666,-0.05262909,0.032920837,77.64138098,12.88417655,5.35
152179083075,-0.5398224,-0.33325958,9.534426,0.036642455,0.02224884,0.051724244,77.64138098,12.88417655,5.35
152179083097,0.24454804,-0.7188614,9.633489,-0.010023499,0.052178957,0.028155517,77.64138098,12.88417655,5.35
152179083118,-0.27948457,-0.022433471,9.534663,-0.030178834,0.043136597,-0.022421265,77.64133026,12.88415753,5.56
152179083139,-0.05264435,-0.5146362,10.041464,0.0031677247,0.011985779,-0.05931244,77.64133026,12.88415753,5.56
152179083160,-0.1576889,-0.13106689,9.5629015,0.05558014,-0.03625946,-0.08191528,77.64133026,12.88415753,5.56
152179083182,-0.43597412,-0.30945283,9.943479,-0.016622925,-0.03968201,-0.029992675,77.64133026,12.88415753,5.56
152179083203,-0.2427536,-0.17425843,9.736501,-7.6293945E-6,-0.030636597,-0.0010421753,77.64133026,12.88415753,5.56
152179083224,-0.162117,-0.5354538,10.120906,0.021372985,-0.024899293,-0.0059249876,77.64130189,12.88414132,5.61
152179083245,-0.24179535,-0.3933197,9.957718,-0.032989502,-0.036746215,-0.012156677,77.64130189,12.88414132,5.61
152179083267,-0.44794005,-0.4832886,9.901607,-6.195068E-4,-0.006089783,0.043060303,77.64130189,12.88414132,5.61
152179083288,-0.3763916,-0.5275558,9.789743,0.0030456544,0.059872437,0.06711731,77.64130189,12.88414132,5.61
152179083309,-0.07609253,-0.3598175,9.6366,-0.037509155,0.1077652,0.024980163,77.64130189,12.88414132,5.61
152179083330,0.044267274,-0.20775604,9.288565,0.030168151,0.10189819,-0.060536195,77.64125344,12.88412041,5.55
152179083352,-0.33499604,-0.31220245,10.094946,-0.004772949,0.051324464,-0.09987488,77.64125344,12.88412041,5.55
152179083373,-0.05970154,-0.051982116,9.851715,-0.011734009,0.014675903,-0.113801576,77.64125344,12.88412041,5.55
152179083394,-0.24155578,-0.9161514,9.147387,0.021008302,-0.03198395,-0.1223587,77.64125344,12.88412041,5.55
152179083415,-0.35198516,-0.18358764,9.987149,0.014656067,-0.08659668,-0.09230194,77.64119194,12.88409278,6.11
152179083437,-0.29802856,-0.6869186,9.330439,0.019909669,-0.05446167,-0.02974701,77.64119194,12.88409278,6.11
152179083458,-0.5665024,-0.06407013,9.539571,-0.073057555,-0.05202179,-0.017530823,77.64119194,12.88409278,6.11
152179083479,-0.3858444,-0.8949753,9.675601,0.12399445,0.014553833,0.004096985,77.64119194,12.88409278,6.11
152179083500,-0.3297302,-0.62374574,9.132672,-0.054122925,0.014678955,-0.029014587,77.64119194,12.88409278,6.11
152179083522,-0.6009582,-0.29485625,10.552933,0.027972411,0.056455992,-0.0038467408,77.64113436,12.88407727,6.21
152179083543,-0.26082,-0.9266769,10.149859,0.028707886,0.0884613,-0.0478302,77.64113436,12.88407727,6.21
152179083564,-0.4655243,-0.31974182,9.956042,-0.046916198,-0.011831665,-0.1084259,77.64113436,12.88407727,6.21
152179083585,-0.35712892,-0.91388094,9.922542,-0.004893494,-0.016590882,-0.07470703,77.64113436,12.88407727,6.21
152179083607,0.40019837,-0.6657425,9.221205,0.010253906,-0.0040115356,-0.062246703,77.64113436,12.88407727,6.21
152179083628,0.21188506,-1.1937225,8.600148,-0.06548309,-0.041516114,-0.095718384,77.64108937,12.88406707,6.13
152179083650,-1.0889771,-0.5390442,10.773788,-0.015274048,-0.063380435,-0.044410706,77.64108937,12.88406707,6.13
152179083670,0.3170456,-0.8704483,10.667786,0.15306854,0.010765076,-0.0017761231,77.64108937,12.88406707,6.13
152179083692,0.11569214,-0.8747589,8.767766,-0.0527771,-0.07193299,-0.06676789,77.64108937,12.88406707,6.13
152179083713,-1.2150757,-0.45565337,9.846089,0.025642395,-0.020623779,0.023997497,77.64103298,12.88405244,6.35
152179083734,0.18699951,-1.2016144,10.179413,-0.11080017,0.049736023,0.021066284,77.64103298,12.88405244,6.35
152179083755,0.2392807,-0.66921234,8.063319,0.0045135496,0.01796875,-0.036836244,77.64103298,12.88405244,6.35
152179083777,0.26117554,-1.2883561,8.212751,-0.00831604,-0.025263976,-0.06603241,77.64103298,12.88405244,6.35
152179083798,0.3731598,-1.2353516,7.6113143,0.021740723,-0.044444274,-0.043551635,77.64103298,12.88405244,6.35
152179083819,0.25435486,-0.84269106,8.984076,-0.022000123,-0.09331818,-0.051985167,77.64097077,12.88403909,6.35
152179083840,-0.18353271,-1.120259,9.827069,0.0058517456,-0.15183258,-0.0018966675,77.64097077,12.88403909,6.35
152179083862,-1.1815796,-0.6244675,11.095386,0.03920746,-0.018917847,0.19038697,77.64097077,12.88403909,6.35
152179083883,0.15206146,-1.7456238,10.270221,0.010984803,0.09530487,0.1187973,77.64097077,12.88403909,6.35
152179083904,0.12621918,-1.5222534,9.139254,-2.532959E-4,0.03788147,-0.011915589,77.64097077,12.88403909,6.35
152179083925,-0.50512695,-2.0692534,9.709223,-0.018087769,0.03727417,0.049775697,77.64091474,12.88403296,5.93
152179083947,0.06508484,-2.2111466,9.969919,-0.0069732666,0.05303345,0.036218263,77.64091474,12.88403296,5.93
152179083968,-0.19477692,-2.2774277,9.702879,0.016726684,0.034458924,-0.025108337,77.64091474,12.88403296,5.93
152179083989,-0.045703124,-2.2366302,9.637439,-0.007951355,-0.0153717045,-0.05125122,77.64091474,12.88403296,5.93
152179084010,-0.5499954,-1.3540375,12.442067,0.03603821,-0.03430786,-0.023516845,77.64086214,12.88401122,5.12
152179084032,-0.15912323,-0.896167,5.0934677,0.41220245,-0.012319947,0.012394714,77.64086214,12.88401122,5.12
152179084053,0.04103241,-4.26371,13.867589,-1.2509171,-0.09331818,0.026806641,77.64086214,12.88401122,5.12
152179084075,-0.50070035,0.782753,6.141763,0.43443298,0.0575531,0.0701767,77.64086214,12.88401122,5.12
152179084096,-0.008856202,-2.547458,13.709422,0.3652893,0.123283386,0.07566986,77.64086214,12.88401122,5.12
152179084117,-0.4918457,0.9271622,7.6309357,-0.14061737,0.06598358,0.030229187,77.64081099,12.88401093,4.47
152179084138,-0.29360047,-0.579364,10.562506,0.1490387,0.059509277,-0.021566773,77.64081099,12.88401093,4.47
152179084160,-0.12718049,-0.52851564,9.311174,-0.10689239,0.0105255125,-0.070063785,77.64081099,12.88401093,4.47
152179084181,-0.5548981,0.9434326,10.743281,0.08905029,0.028112793,-0.06737518,77.64081099,12.88401093,4.47
152179084202,-0.5371887,0.16049805,9.766291,0.0056137084,0.017608643,-0.07702942,77.64081099,12.88401093,4.47
152179084223,-0.48239288,-0.47180328,8.018214,-0.020402526,-0.1297226,-0.21471405,77.64076716,12.88399713,3.79
152179084245,-1.8384079,0.031166077,9.496381,-0.013327027,-0.24554138,-0.09328003,77.64076716,12.88399713,3.79
152179084266,-2.4725082,0.2886322,11.528845,0.025646973,-0.095759585,0.24927369,77.64076716,12.88399713,3.79
152179084287,-0.008615112,-1.3314254,10.969162,0.014653015,0.120716855,0.30706176,77.64076716,12.88399713,3.79
152179084308,0.2407196,-0.75511473,10.068863,-0.022486877,0.10800628,0.053445436,77.64076716,12.88399713,3.79
152179084330,-0.281398,-0.7584656,9.993729,-0.026757812,0.054130554,-0.025352478,77.64072436,12.88398612,4.5
152179084351,-0.40486756,-1.6136596,10.0214815,0.015872192,0.0662262,0.012524414,77.64072436,12.88398612,4.5
152179084372,0.27350006,-1.9204178,9.305435,0.018559266,0.015534973,-0.063223265,77.64072436,12.88398612,4.5
152179084393,-1.0656449,-1.5894928,9.473051,-0.021629333,0.0025878907,-0.009962464,77.64072436,12.88398612,4.5
152179084415,0.29048616,-1.6688125,10.090399,-0.009170532,0.026646424,0.0018890381,77.64068623,12.88396746,4.24
152179084436,0.22540283,-0.8235504,9.815824,0.025402833,-0.09465332,-0.21227875,77.64068623,12.88396746,4.24
152179084457,-0.6746567,-0.916272,10.01742,-0.013937378,-0.1667389,-0.060411073,77.64068623,12.88396746,4.24
152179084478,-0.97866666,-1.2793823,9.735781,-0.012103272,-0.08476257,0.16154937,77.64068623,12.88396746,4.24
152179084499,-0.36263275,-1.1496918,9.973269,0.015019226,-0.026976014,0.20736846,77.64068623,12.88396746,4.24
152179084521,-0.5296539,-1.2426529,10.020528,-0.0047683716,0.006126404,0.18354797,77.64063473,12.88395823,4.42
152179084542,-0.5923462,-1.2832092,9.741765,-0.0021987916,0.08919525,0.2321701,77.64063473,12.88395823,4.42
152179084563,0.54903257,-1.55719,10.397993,-0.06585236,0.08699646,0.09851837,77.64063473,12.88395823,4.42
152179084584,0.1657013,-1.4389832,9.199072,-0.012098694,0.042037964,0.0017669678,77.64063473,12.88395823,4.42
152179084606,0.6685532,-1.1581863,7.69016,-0.43004456,0.019685363,0.10524292,77.64063473,12.88395823,4.42
152179084627,-0.82516783,-0.9125641,2.9031937,0.13621826,0.18106994,-0.106723025,77.64063631,12.88395165,2.65
152179084648,1.0814377,-2.8871217,8.47955,0.77017057,-0.050068665,-0.12687835,77.64063631,12.88395165,2.65
152179084670,1.5016114,-0.9882965,12.555484,-0.17886047,-0.15501556,-0.37256163,77.64063631,12.88395165,2.65
152179084691,-0.9732834,0.09649201,6.4584565,0.21623993,-0.12031555,-0.17611237,77.64063631,12.88395165,2.65
152179084712,-1.0224564,-1.3146775,11.821127,-0.048506163,-0.27706298,0.07909699,77.64063631,12.88395165,2.65
152179084733,-1.6124054,-3.2621949,12.1442795,-0.43126678,-0.111766055,0.6504898,77.64061542,12.8839437,2.66
152179084755,0.8511261,-0.1486496,8.490796,0.23993531,0.1936554,0.82055664,77.64061542,12.8839437,2.66
152179084776,0.40402833,-0.26446685,9.612552,0.0053726197,-0.046769716,0.29484406,77.64061542,12.8839437,2.66
152179084797,0.3060379,-0.96125793,9.822879,0.09064026,-0.08414917,0.16253357,77.64061542,12.8839437,2.66
152179084818,-0.30987397,-1.2443253,9.2559,-0.028955078,-0.10992889,0.24243164,77.64059738,12.8839419,2.1
152179084840,-1.6709106,0.10666351,9.805295,0.15808105,0.021272277,0.5988113,77.64059738,12.8839419,2.1
152179084861,0.034095764,0.4779083,9.983561,0.15576324,-0.033328246,0.49313203,77.64059738,12.8839419,2.1
152179084882,-0.9433731,-0.906102,9.698575,0.023934936,-0.012687683,0.45012817,77.64059738,12.8839419,2.1
152179084903,-0.15685272,-1.0509888,9.715204,-0.11031799,0.0023406981,0.6033325,77.64059738,12.8839419,2.1
152179084925,-0.41754913,-0.54585874,11.811793,0.08882141,0.2081894,0.68298495,77.64058263,12.88392503,1.44
152179084946,0.4328598,-0.16145477,7.4903564,0.20438385,0.06415405,0.23254243,77.64058263,12.88392503,1.44
152179084967,0.16294555,-0.891626,8.782481,0.23663941,0.012475586,0.12869415,77.64058263,12.88392503,1.44
152179084988,-0.7306503,1.2856048,9.806971,-0.26657104,-0.13203888,0.06785431,77.64058263,12.88392503,1.44
152179085010,-0.32135773,0.5935974,8.789778,0.08441315,0.015286255,0.3290573,77.64058263,12.88392503,1.44
152179085031,-0.16127777,0.16361237,9.744039,-0.010874939,0.0160141,0.23095246,77.64056878,12.88390589,1.94
152179085052,-0.0034713745,0.22977142,9.474007,0.018807983,-0.0020599365,0.2627121,77.64056878,12.88390589,1.94
152179085073,-0.6031143,0.5043472,10.087527,0.03615265,0.004658508,0.26491088,77.64056878,12.88390589,1.94
152179085095,-0.7913071,0.42322844,9.730398,-0.0015945435,0.1308548,0.35006866,77.64056878,12.88390589,1.94
152179085116,0.45631257,0.23144837,9.1493025,0.029310608,0.16677094,0.20028535,77.6405678,12.88388837,2.13
152179085137,-0.0011978149,0.4460846,10.2350445,-0.0644989,0.019929504,-0.05381622,77.6405678,12.88388837,2.13
152179085158,-0.82420653,0.49872437,9.570798,-0.031030273,-0.02355652,0.027420044,77.6405678,12.88388837,2.13
152179085180,-0.90293276,0.11850281,10.049002,-0.0041625975,0.16725922,0.20456238,77.6405678,12.88388837,2.13
152179085201,0.06819458,-0.6777069,10.653189,0.0039001466,0.14490204,-0.02865448,77.6405678,12.88388837,2.13
152179085222,-0.33176574,-0.73872375,10.986629,-0.0053848266,0.058773804,-0.1486145,77.64056875,12.88386722,2.33
152179085243,-0.12215576,-0.2905487,9.807808,0.048490904,0.011132812,-0.1697586,77.64056875,12.88386722,2.33
152179085265,-0.38357085,-0.8048874,10.48318,0.032608032,-0.044692993,-0.18478394,77.64056875,12.88386722,2.33
152179085286,0.31932068,-0.5763718,8.836679,-0.0042831423,-0.1210495,-0.20286866,77.64056875,12.88386722,2.33
152179085307,-0.19286346,-0.49333802,9.560867,0.0018203736,-0.16282502,-0.14068298,77.64056875,12.88386722,2.33
152179085328,-0.52594453,-0.72400665,9.657419,0.010011291,-0.16697998,0.02962036,77.64057405,12.88383384,4.43
152179085350,-0.7714478,-1.0482346,9.642459,0.034568787,-0.105895996,0.15825501,77.64057405,12.88383384,4.43
152179085371,-0.7081558,-0.78430784,10.316281,0.01111145,-0.03907013,0.24609832,77.64057405,12.88383384,4.43
152179085392,-0.8020752,-0.96544343,10.233011,0.0075653074,0.1025116,0.3365097,77.64057405,12.88383384,4.43
152179085413,0.2531616,-1.2504303,9.582642,-7.4310304E-4,0.10727539,0.16534424,77.64057759,12.88379399,4.05
152179085435,-0.45750886,-0.96125335,9.457377,-0.0015991211,0.1346405,0.12307129,77.64057759,12.88379399,4.05
152179085456,0.20984955,-0.9546753,9.006332,-0.0045303344,0.17850342,0.05112152,77.64057759,12.88379399,4.05
152179085477,0.67585146,-0.7072586,12.608246,0.23957062,0.09444733,-0.22022095,77.64057759,12.88379399,4.05
152179085498,-0.6932022,-0.5947937,5.576457,0.20121154,-0.021968078,-0.23231201,77.64057759,12.88379399,4.05
152179085520,-0.20315246,-3.2610002,12.217618,-0.8792679,-0.08622742,-0.19700165,77.64058401,12.88375747,3.91
152179085541,-0.998526,1.2031708,7.4935865,0.002684021,-0.09649353,-0.14409943,77.64058401,12.88375747,3.91
152179085562,-0.6920044,-0.5877365,8.0501585,0.68672025,0.06903839,0.029496765,77.64058401,12.88375747,3.91
152179085583,-0.27218628,0.69960177,12.332234,-0.23444214,-0.06900177,-0.052716065,77.64058401,12.88375747,3.91
152179085605,-0.9668228,1.5090973,8.11022,0.04091797,-0.08280792,-0.070185855,77.64058401,12.88375747,3.91
152179085626,-0.9803406,0.7157547,12.4377575,0.1127594,-0.022093201,0.01752472,77.64058961,12.88372294,3.63
152179085647,0.5157715,-0.2724823,7.5491014,-0.0868576,0.0200531,0.10486908,77.64058961,12.88372294,3.63
152179085669,-0.70672,0.043966673,11.11381,0.047636412,0.008930969,0.0056762695,77.64058961,12.88372294,3.63
152179085690,-0.87290037,0.17006989,9.216299,-0.038363647,-0.04725647,-6.5612796E-5,77.64058961,12.88372294,3.63
152179085711,-0.55010986,0.022433471,9.40653,0.0049987794,0.06732941,0.17706756,77.64058961,12.88372294,3.63
152179085732,0.015791321,0.38817596,10.316159,0.004510498,0.13012238,0.07762756,77.64059474,12.88369243,3.14
152179085753,0.30735627,0.19531402,9.661962,0.012940979,0.042771913,-0.14324646,77.64059474,12.88369243,3.14
152179085775,-0.37615356,0.40098113,9.909143,0.008055115,-0.025631715,-0.16658172,77.64059474,12.88369243,3.14
152179085796,-0.23186493,0.23049012,9.783997,-0.025906373,-0.0012054443,-0.025105286,77.64059474,12.88369243,3.14
152179085817,-0.37460023,-0.020036316,9.915845,0.013796997,0.031040955,-0.071165465,77.64060248,12.88365865,4.17
152179085838,-0.037088014,-0.14638062,9.591494,0.014649963,0.013940429,-0.09999695,77.64060248,12.88365865,4.17
152179085860,0.11258392,-0.17844696,9.517319,0.045805357,-0.053366087,-0.15619811,77.64060248,12.88365865,4.17
152179085881,-0.40869752,-0.232164,9.412633,-0.03690033,-0.12422333,-0.10561828,77.64060248,12.88365865,4.17
152179085902,-0.499263,0.13441773,9.4047365,-0.013690186,-0.092703246,0.01764984,77.64060248,12.88365865,4.17
152179085923,-0.58038175,0.5788849,11.034967,0.09503937,-0.031863403,0.009339904,77.64060885,12.88361626,4.61
152179085945,-0.11772613,-0.91567075,9.347545,-0.15112153,-0.07315521,0.040615845,77.64060885,12.88361626,4.61
152179085966,-0.15912628,0.21756744,9.870738,0.07757568,-0.09282379,0.06980896,77.64060885,12.88361626,4.61
152179085987,-0.25675353,-0.82582396,10.155963,0.10945892,-0.009632873,0.12783508,77.64060885,12.88361626,4.61
152179086009,-0.48108062,0.6059219,9.2337675,-0.096148685,0.021759033,0.135289,77.64060885,12.88361626,4.61
152179086030,0.14237213,0.037150573,9.941923,0.042507935,0.071115114,0.074812315,77.6406211,12.88356073,5.1
152179086051,0.25399628,-0.14649963,9.280667,-0.025296021,-0.034306336,0.0039749146,77.6406211,12.88356073,5.1
152179086072,-0.3894333,0.057130434,9.747864,0.0029205321,-0.039193727,0.030474853,77.6406211,12.88356073,5.1
152179086094,-0.08853607,-0.028775025,10.094109,0.01355133,0.017608643,0.11134186,77.6406211,12.88356073,5.1
152179086115,-0.12921295,0.08512573,9.873967,0.010864258,0.049734496,0.06871033,77.64062527,12.88351889,5.29
152179086136,0.043067932,-0.35180512,9.676318,-0.011488343,0.042160034,0.02449646,77.64062527,12.88351889,5.29
152179086157,-0.12909698,-0.06957245,9.418497,-0.017596435,0.06989288,0.058203124,77.64062527,12.88351889,5.29
152179086179,0.017466735,0.036071777,9.601187,-0.016256714,0.1187561,0.03340759,77.64062527,12.88351889,5.29
152179086200,-0.06448822,-0.24029846,9.722025,0.04287262,0.09334564,-0.06188049,77.64062527,12.88351889,5.29
152179086221,-0.12155609,-0.07938232,10.412471,-0.06328277,0.028604126,-0.121247865,77.64063072,12.88347154,5.28
152179086242,-0.15457611,0.13262025,9.7719145,0.049594115,-0.07682037,-0.13518219,77.64063072,12.88347154,5.28
152179086264,-0.20961304,-0.37190247,9.351257,0.041529845,-0.16319732,-0.1019516,77.64063072,12.88347154,5.28
152179086285,-0.4378891,-0.39427644,9.305313,-0.044589233,-0.14914703,0.04940643,77.64063072,12.88347154,5.28
152179086306,-0.39720917,-0.2795395,9.828026,0.072683714,-0.006459045,0.117817685,77.64063072,12.88347154,5.28
152179086327,-0.29503632,-0.08536072,10.268663,-0.037875365,0.07184601,0.12331696,77.64064924,12.8834072,6.27
152179086349,0.04737854,-0.21338043,9.903519,0.002192688,0.109960936,0.018991088,77.64064924,12.8834072,6.27
152179086370,0.0055023194,0.18478546,10.164098,-0.017355347,0.101170346,-0.033169556,77.64064924,12.8834072,6.27
152179086391,0.3692108,-0.11551209,10.028188,-9.841919E-4,0.06976776,-0.07898407,77.64064924,12.8834072,6.27
152179086413,0.25878447,-0.0822525,10.071017,0.0069534304,-0.04212799,-0.14972076,77.64067,12.88334457,5.92
152179086434,-0.25687104,-0.058683775,9.911298,0.0071990965,-0.10455322,-0.08790131,77.64067,12.88334457,5.92
152179086455,-0.30664366,0.0077194213,9.775024,0.013798523,-0.07975159,0.014477539,77.64067,12.88334457,5.92
152179086476,-0.27792817,-0.1832306,9.615781,0.009524536,-0.026119996,0.043052673,77.64067,12.88334457,5.92
152179086497,0.09989929,-0.23000947,9.823122,0.0030471801,0.027375793,0.027180482,77.64067,12.88334457,5.92
152179086519,0.3716034,-0.4241867,9.515402,-0.018823242,0.029821778,-0.015208435,77.64067853,12.88327462,6.43
152179086540,0.2194229,-0.31399995,9.614467,0.02967987,-0.02636261,-0.05137329,77.64067853,12.88327462,6.43
152179086561,0.0062210085,-0.28456575,9.89263,-0.0014755249,-0.04261017,0.00750885,77.64067853,12.88327462,6.43
152179086582,0.096669,0.07220612,9.865829,0.005857849,-0.05995941,-0.010693359,77.64067853,12.88327462,6.43
152179086604,-0.089732364,-0.19208375,9.7807665,0.018074036,-0.08830261,0.022904968,77.64067853,12.88327462,6.43
152179086625,-0.0958374,-7.7819824E-4,9.901009,-0.010639953,-0.09624481,0.06088867,77.64068935,12.88322951,6.45
152179086646,-0.44100037,-0.0562912,10.121267,0.024177551,-0.037971497,0.13247833,77.64068935,12.88322951,6.45
152179086667,0.0040649413,-0.20357056,9.965854,0.00988617,0.030552674,0.13272095,77.64068935,12.88322951,6.45
152179086689,-0.04941406,-0.28588104,9.311892,0.008413697,0.068179324,0.10670014,77.64068935,12.88322951,6.45
152179086710,0.05144348,-0.013459777,10.139689,0.0023117065,0.09420319,0.08165588,77.64069471,12.88317154,6.43
152179086731,0.47126466,0.006880188,10.146152,1.1444092E-4,0.0509552,-0.005316162,77.64069471,12.88317154,6.43
152179086752,0.17586975,0.0011383056,9.839749,-2.5634764E-4,-0.039927673,-0.043063354,77.64069471,12.88317154,6.43
152179086774,-0.036135864,-0.107737735,10.120668,-0.01161499,-0.10504303,0.0017715454,77.64069471,12.88317154,6.43
152179086795,-0.23102875,-0.30753785,9.800748,0.004388428,-0.11530304,0.08018951,77.64069471,12.88317154,6.43
152179086816,-0.26847535,-0.16229554,9.585632,-0.015156555,-0.07596741,0.14286041,77.64071023,12.88311804,6.7
152179086837,-0.27876586,-0.06574249,10.124736,0.05643616,-0.008166504,0.16277924,77.64071023,12.88311804,6.7
152179086859,0.009690857,-0.08907318,10.024239,-0.010391235,0.043380737,0.15080413,77.64071023,12.88311804,6.7
152179086880,-0.02046051,-0.009869385,9.927568,0.03493042,0.07770844,0.13125916,77.64071023,12.88311804,6.7
152179086901,0.2706253,-0.27463531,9.799429,-0.023460388,0.060606383,0.0673584,77.64071023,12.88311804,6.7
152179086922,0.23018952,-0.18347016,9.724894,0.014404297,0.0317749,0.062350463,77.64071797,12.88305631,6.87
152179086944,-0.055395506,-0.16851196,9.692949,-0.03530731,-0.014517212,0.036701966,77.64071797,12.88305631,6.87
152179086965,-0.11605225,-0.08608246,9.2961,0.011109924,-0.025265504,0.07518158,77.64071797,12.88305631,6.87
152179086987,-0.20758057,0.26231384,10.220088,0.027600098,-5.9051515E-4,0.10743561,77.64071797,12.88305631,6.87
152179087007,-0.21212617,-0.13824463,9.024875,-0.037145995,0.042893983,0.1121994,77.64071797,12.88305631,6.87
152179087029,-0.115933225,0.7655258,10.14316,0.054110717,0.11118317,0.09863739,77.64074783,12.88299547,7.0
152179087050,0.5326401,0.06694031,10.155127,-0.0015960693,0.06365967,-0.019119263,77.64074783,12.88299547,7.0
152179087071,-0.30054015,0.60639954,9.607167,-0.031156922,0.022125244,0.024615478,77.64074783,12.88299547,7.0
152179087092,0.011602784,0.35061035,10.030218,0.011962891,0.03690796,0.03890381,77.64074783,12.88299547,7.0
152179087114,0.2717041,0.5705093,9.715324,0.022344971,0.031285096,-0.008248901,77.64077905,12.8829306,7.68
152179087135,-0.13076934,0.53952026,9.340368,-0.019187927,-0.019522095,-0.020582581,77.64077905,12.8829306,7.68
152179087157,0.023088073,0.503154,9.845972,-0.0011108399,-0.024288941,0.0056793215,77.64077905,12.8829306,7.68
152179087178,-0.20733795,0.44057924,9.769402,0.056677245,-0.014025879,0.02351532,77.64077905,12.8829306,7.68
152179087199,-0.4137207,0.81972045,9.185913,-0.0023284913,-0.012684631,0.015332031,77.64077905,12.8829306,7.68
152179087220,0.15433197,0.65126646,9.35054,-0.05644531,0.011129761,0.031455994,77.64081557,12.88286573,8.24
152179087241,0.046058655,0.9077789,10.28302,0.042749025,0.005145264,-0.00690155,77.64081557,12.88286573,8.24
152179087263,-0.07776947,0.70773774,9.831018,-0.0083145145,-0.076452635,-0.016677856,77.64081557,12.88286573,8.24
152179087284,-0.38560334,0.5803192,10.046249,-0.004159546,-0.048110962,0.06333923,77.64081557,12.88286573,8.24
152179087305,0.17945862,0.27355805,9.59066,-0.011489868,0.021267701,0.06150055,77.64081557,12.88286573,8.24
152179087326,-0.062094115,-0.03439789,9.885813,-0.048625182,0.038981628,0.03218689,77.64085876,12.88279855,9.09
152179087348,-0.18245545,-0.61788636,10.193769,0.0021896362,0.04777832,0.025227357,77.64085876,12.88279855,9.09
152179087369,0.10731812,-1.0636688,9.987267,-0.0292099,0.0490036,0.021566773,77.64085876,12.88279855,9.09
152179087390,0.08398743,-1.027417,9.763301,-0.015768433,0.035679627,-0.0012802124,77.64085876,12.88279855,9.09
152179087412,0.20338745,-0.87798464,9.780769,0.005125427,0.0025863647,-0.009957885,77.64089813,12.88272606,9.08
152179087433,0.17586823,-0.8416153,9.920507,-0.002937317,-0.021110535,-0.012399292,77.64089813,12.88272606,9.08
152179087454,0.22624055,-1.5723816,9.252194,0.033953857,-0.043592833,-0.013009643,77.64089813,12.88272606,9.08
152179087475,-0.21870574,-1.3255631,9.477598,-0.02224121,-0.041757204,0.032917786,77.64089813,12.88272606,9.08
152179087496,-0.27601472,-0.74243164,9.724655,0.007563782,0.031533815,0.06638489,77.64089813,12.88272606,9.08
152179087518,0.04295044,-1.0111465,9.79608,0.012573242,0.07588043,0.029867554,77.64093691,12.88265687,8.86
152179087539,0.4332184,-0.9262024,9.731115,-0.013449097,0.04912567,-0.031462096,77.64093691,12.88265687,8.86
152179087560,-0.03086853,-0.80141604,10.377417,-0.0073364256,-0.015615845,-0.05454712,77.64093691,12.88265687,8.86
152179087581,-0.1265808,-1.0853226,9.682777,0.0052459715,-0.019763183,0.0029922486,77.64093691,12.88265687,8.86
152179087603,0.018663025,-1.161055,9.466829,-0.0050201416,-0.008770752,0.005067444,77.64093691,12.88265687,8.86
152179087624,-0.17013398,-1.0976486,9.665075,-0.0013549805,-0.012069702,-6.744385E-4,77.64098095,12.88258628,8.34
152179087645,-0.0969101,-1.1331818,9.421007,0.042625427,0.04008484,0.040734865,77.64098095,12.88258628,8.34
152179087666,0.2274353,-1.1784058,9.731356,-0.038000487,0.055966187,-0.009098816,77.64098095,12.88258628,8.34
152179087688,-0.14488526,-0.45230255,10.633688,0.042262267,0.030184936,-0.06114502,77.64098095,12.88258628,8.34
152179087709,0.33631134,-0.6509094,9.930919,-0.051683046,-0.0655838,-0.003729248,77.64098095,12.88258628,8.34
152179087730,-0.9000595,-0.7688736,10.195444,0.047395326,-0.074986264,0.013493347,77.64101651,12.8825203,7.69
152179087751,-0.03553467,-1.0302871,9.663999,-0.029078674,-0.0063339234,0.0483078,77.64101651,12.8825203,7.69
152179087773,0.7817322,-1.5626923,7.65582,0.07267914,0.07098999,0.04598541,77.64101651,12.8825203,7.69
152179087794,-0.5714081,-0.22617951,9.903997,-0.05742035,0.043014526,-0.027429199,77.64101651,12.8825203,7.69
152179087815,-0.27194518,-0.7687546,10.334105,0.023814391,0.028352356,-0.05259552,77.64105161,12.88246567,6.76
152179087837,0.4414749,-0.45720825,9.110418,-0.004408264,-0.019528199,-0.06823425,77.64105161,12.88246567,6.76
152179087858,0.2870163,0.1254425,10.647329,0.096998595,-0.0365036,-0.052838136,77.64105161,12.88246567,6.76
152179087879,-0.12753907,-1.2146546,8.835243,-0.09981384,-0.030393982,-0.024739075,77.64105161,12.88246567,6.76
152179087908,0.21152039,0.46977082,9.639232,-0.058155823,-0.042001344,0.018997192,77.64105161,12.88246567,6.76
152179087922,-0.21918336,-0.97788393,11.315283,0.14586487,0.019561768,-0.009838867,77.64109789,12.88241538,6.73
152179087943,-0.1144989,0.11515655,9.07979,-0.09785767,-0.09001465,-0.020585632,77.64109789,12.88241538,6.73
152179087964,-0.2563904,-0.23228303,9.992892,0.08416595,-0.0021804809,0.049531557,77.64109789,12.88241538,6.73
152179087985,0.16043548,-0.2449646,9.057655,-0.012956237,0.0025848388,0.033042908,77.64109789,12.88241538,6.73
152179088007,-0.19992217,0.39332122,9.902084,-0.029695129,0.011865234,0.019976806,77.64109789,12.88241538,6.73
152179088028,-0.28905335,-0.12903138,9.968005,-0.012840271,0.008198547,0.024615478,77.64113521,12.88236678,6.59
152179088049,-0.16857605,0.10103913,9.825513,-0.011857605,0.011378479,0.031941224,77.64113521,12.88236678,6.59
152179088070,9.552002E-4,-0.38375244,9.66017,0.01660614,0.05119629,0.024128724,77.64113521,12.88236678,6.59
152179088092,0.12131653,-0.1068985,9.742121,-0.013691711,0.040818788,-0.0028701783,77.64113521,12.88236678,6.59
152179088113,0.10959015,-0.007955933,9.891077,0.0123321535,0.041056823,-0.025839234,77.6411607,12.88232219,6.43
152179088134,0.023687745,-0.1388443,10.114092,0.014283752,-0.0134155275,-0.06749725,77.6411607,12.88232219,6.43
152179088155,-0.030509949,-0.033558656,9.733989,0.009031678,-0.07205658,-0.05540619,77.6411607,12.88232219,6.43
152179088177,-0.21092682,-0.16169587,9.955684,6.011963E-4,-0.06826935,0.016435241,77.6411607,12.88232219,6.43
152179088198,-0.2103302,0.067538455,9.661845,-0.009046936,-0.06607056,0.020829773,77.6411607,12.88232219,6.43
152179088219,-0.06700134,-0.021118164,9.753609,0.011965943,-0.053974915,0.04818573,77.64118631,12.88226348,6.56
152179088240,-0.35186768,0.022909546,9.759712,0.005244446,-0.007800293,0.097781375,77.64118631,12.88226348,6.56
152179088262,-0.013760376,-0.11204223,9.598076,-0.031039428,0.042401124,0.078112796,77.64118631,12.88226348,6.56
152179088283,-0.012567138,0.07340088,10.124619,0.007077026,0.06977081,0.05417328,77.64118631,12.88226348,6.56
152179088304,-0.011485291,-0.33409578,9.848364,0.01770172,0.058654785,0.0017684937,77.64118631,12.88226348,6.56
152179088325,0.17622986,0.0381073,9.889401,-0.023954773,0.017602539,-0.010569763,77.641219,12.88220698,6.94
152179088347,-0.037208557,-0.16815338,9.640668,0.027359009,-0.003034973,-0.019363403,77.641219,12.88220698,6.94
152179088368,-0.08243408,-0.19495544,10.171277,0.016238403,-0.0036453246,0.017651368,77.641219,12.88220698,6.94
152179088389,-0.4383667,-0.098760985,10.127129,-0.0034317016,0.051567078,0.039512634,77.641219,12.88220698,6.94
152179088411,0.01531372,0.04588318,9.996721,0.0031707764,0.09970093,0.021554565,77.64125044,12.88215873,6.83
152179088432,-0.008494568,-0.116830446,9.980211,0.0012115479,0.096524045,-0.056996156,77.64125044,12.88215873,6.83
152179088453,0.32003632,-0.12245331,9.7756195,-0.012350464,0.058776855,-0.08680268,77.64125044,12.88215873,6.83
152179088474,0.37854156,-0.1322647,9.573308,0.012576294,-0.045666505,-0.15350647,77.64125044,12.88215873,6.83
152179088495,-0.21415862,-0.24053955,9.726929,-0.011250305,-0.15440063,-0.11135864,77.64125044,12.88215873,6.83
152179088517,-0.62811583,0.04636078,10.175583,0.0021881103,-0.12642059,0.024975587,77.6412975,12.88209267,7.5
152179088538,-0.060420226,-0.035353087,9.973032,-3.768921E-4,-0.024655152,0.05783539,77.6412975,12.88209267,7.5
152179088559,0.07010803,-0.37752685,9.792732,-0.024435425,0.044970702,0.039881896,77.6412975,12.88209267,7.5
152179088580,0.205542,0.08644104,9.396482,0.008177185,0.038008116,-0.013377381,77.6412975,12.88209267,7.5
152179088602,0.46181184,-0.5232498,8.26264,0.018193055,0.0046539307,-0.015089417,77.6412975,12.88209267,7.5
152179088623,0.059098817,-0.12412872,10.031177,0.045440674,-0.031007385,-0.031581115,77.64132834,12.88204664,7.13
152179088644,0.008734131,-0.15547486,9.787109,-0.032380678,-0.040293884,-0.020829773,77.64132834,12.88204664,7.13
152179088665,0.03277893,-0.42107543,9.381765,-0.06389771,-0.08244324,-0.0071472167,77.64132834,12.88204664,7.13
152179088687,0.025723267,-0.22965088,9.573671,0.079524234,-0.08231811,0.0345047,77.64132834,12.88204664,7.13
152179088708,-0.18101501,-0.42861328,9.4383545,-0.046427917,-0.05214386,0.08190155,77.64132834,12.88204664,7.13
152179088729,-0.10420837,-0.11252441,9.403659,0.048735045,0.02518158,0.11366425,77.64136342,12.88198505,7.24
152179088750,0.05467377,-0.31064758,9.861407,-0.0077056885,0.05180969,0.06760864,77.64136342,12.88198505,7.24
152179088772,-0.13196564,-0.041215517,9.740209,-0.017718505,0.05156555,0.062841795,77.64136342,12.88198505,7.24
152179088793,-0.018667603,-0.23671111,10.210039,0.008302307,0.12792054,0.060890198,77.64136342,12.88198505,7.24
152179088814,0.101452634,-0.21493378,9.876719,-0.03861084,0.1392868,0.013250733,77.64140978,12.88193076,7.4
152179088835,0.11724701,-0.053541563,9.791295,0.00524292,0.090415955,-0.06383209,77.64140978,12.88193076,7.4
152179088857,0.15158539,0.061914064,9.794645,-0.008926392,0.002709961,-0.10219574,77.64140978,12.88193076,7.4
152179088878,-0.010409546,-0.013699341,9.830182,0.010253906,-0.09380188,-0.08680268,77.64140978,12.88193076,7.4
152179088899,-0.39290315,-0.14375,10.001389,-0.0063583376,-0.14474793,-0.038175963,77.64140978,12.88193076,7.4
152179088920,-0.85531616,-0.042892456,9.851954,0.0142852785,-0.026368713,0.11501007,77.64145388,12.8818711,7.61
152179088942,-0.053240966,-0.12472534,9.774188,-0.016011048,0.09786682,0.06320953,77.64145388,12.8818711,7.61
152179088963,0.06951141,-0.12759551,9.987747,-0.004408264,0.11949158,-0.019487,77.64145388,12.8818711,7.61
152179088984,0.41945952,-0.06598206,10.0235195,0.0059783934,0.06524964,-0.090098575,77.64145388,12.8818711,7.61
152179089006,-0.15398102,-0.17987975,9.7325535,0.0070755007,-0.02758789,-0.0965744,77.64145388,12.8818711,7.61
152179089027,-0.0447464,-0.16576385,9.893471,0.014646912,-0.020498658,-0.042822264,77.64149445,12.881815,7.46
152179089048,0.0076553347,-0.4844864,9.167966,-0.016989136,-0.028317261,-0.047096252,77.64149445,12.881815,7.46
152179089069,0.06663971,-0.28863373,9.441226,0.00854187,-0.048841856,-0.052227784,77.64149445,12.881815,7.46
152179089091,-0.14141694,-0.33517456,9.5679245,-0.06560211,-0.07559967,-0.03256073,77.64149445,12.881815,7.46
152179089112,-0.15206298,-0.07184295,9.744517,0.06999512,-0.04371338,0.0055587767,77.64152261,12.88175825,7.51
152179089133,-0.2708679,-0.22223206,9.97626,-0.016990662,-0.03760376,-0.0026245117,77.64152261,12.88175825,7.51
152179089154,-0.111746214,-0.16265412,9.371834,0.043240357,-0.010244751,0.030847168,77.64152261,12.88175825,7.51
152179089176,0.029072572,-0.53592986,9.521385,-0.03604126,0.009182739,0.018510437,77.64152261,12.88175825,7.51
152179089197,0.16856995,-0.018840026,9.694507,-0.027005006,0.010031128,0.009954834,77.64152261,12.88175825,7.51
152179089218,-0.12801819,-0.3441452,9.570915,0.035417177,-0.014027405,-0.013867187,77.64155458,12.88169731,7.62
152179089239,-0.23677063,0.084286496,9.807567,-0.024925232,-0.041268922,0.013499451,77.64155458,12.88169731,7.62
152179089261,0.0068191527,-0.16767578,9.54998,0.014286804,-0.018060302,0.023272704,77.64155458,12.88169731,7.62
152179089282,0.022850037,-0.39272156,9.558357,0.0012145996,-0.002416992,0.037683107,77.64155458,12.88169731,7.62
152179089303,-0.3668213,-0.390448,9.493509,0.0130584715,0.018218994,0.03890381,77.64155458,12.88169731,7.62
152179089324,0.044026185,-0.11204223,10.27022,-0.036650084,0.025541687,0.018997192,77.64160609,12.88162186,8.26
152179089346,-0.17001191,-0.09756775,9.579172,0.028334046,0.042646788,0.019244384,77.64160609,12.88162186,8.26
152179089367,-0.034098815,0.03870392,9.974466,-0.010269165,0.038127135,-0.0055603026,77.64160609,12.88162186,8.26
152179089388,0.026200866,-0.067538455,10.303839,0.0057342527,0.023101807,-0.020466615,77.64160609,12.88162186,8.26
152179089409,0.039479066,-0.49369964,10.1358595,-7.446289E-4,-0.020501709,-0.03695526,77.64160609,12.88162186,8.26
152179089431,0.20231171,-0.70737916,9.93558,-0.02114563,-0.060694885,-0.024372865,77.64164887,12.88156096,8.29
152179089452,-0.26273346,-0.7350128,9.742365,-0.019429017,-0.07694397,0.012280273,77.64164887,12.88156096,8.29
152179089473,-0.24251404,-0.6219543,9.105512,0.021980286,-0.05018463,0.05306854,77.64164887,12.88156096,8.29
152179089494,-0.20422821,-0.8315643,10.356722,0.015750121,1.8310548E-5,0.069805905,77.64164887,12.88156096,8.29
152179089516,-0.18532562,-0.688591,9.097498,-0.021264648,0.04546051,0.06736298,77.64168424,12.88149883,8.28
152179089537,0.15864411,-0.52205354,9.951494,0.022720337,0.1010437,0.056248475,77.64168424,12.88149883,8.28
152179089558,0.33439636,-0.57146454,10.179415,0.010009766,0.061584473,-0.05406189,77.64168424,12.88149883,8.28
152179089579,-0.23868713,-0.5787628,9.439428,-0.01833191,-0.029663086,-0.036468506,77.64168424,12.88149883,8.28
152179089601,-0.1478775,-0.38291016,10.162662,0.0037750243,-0.016586304,0.0062927245,77.64168424,12.88149883,8.28
152179089622,-0.20865631,-0.58259124,9.741405,-0.0046508787,-0.012805176,0.008854675,77.64172451,12.88143923,7.88
152179089643,-0.118206784,-0.32704163,9.664476,-1.2664795E-4,-0.0025466918,0.01826172,77.64172451,12.88143923,7.88
152179089664,-0.0869812,-0.31280214,10.120786,-0.0030593872,0.030184936,0.020341491,77.64172451,12.88143923,7.88
152179089686,0.22695617,-0.46737823,9.486809,-0.021020507,0.009786988,-0.027429199,77.64172451,12.88143923,7.88
152179089707,-0.24120025,-0.40169373,10.120427,0.030657958,-0.028074646,-0.015206909,77.64172451,12.88143923,7.88
152179089728,-0.036849976,-0.6859619,9.466469,-0.011857605,-0.010968017,0.011668396,77.64175805,12.88138808,7.87
152179089749,-0.07166443,-0.13202362,10.014784,-0.010995483,-0.017079163,0.010566711,77.64175805,12.88138808,7.87
152179089771,-0.18042144,-0.39798433,10.01,0.014405822,-0.008406067,0.009588623,77.64175805,12.88138808,7.87
152179089792,-0.116175845,-0.34450683,9.949944,-0.015156555,0.007835388,0.032189943,77.64175805,12.88138808,7.87
152179089813,-0.054559328,-0.4533798,9.916919,0.005609131,0.038491823,0.02156372,77.6417926,12.88133007,7.67
152179089835,0.020698547,-0.39631042,10.182762,0.0026748658,0.058407594,0.009466553,77.6417926,12.88133007,7.67
152179089856,0.028234864,-0.46977082,9.413591,-0.0030578612,0.051930238,-0.026202392,77.6417926,12.88133007,7.67
152179089877,0.122750856,-0.15463562,9.930201,-0.0033020019,-0.0066986084,-0.05344696,77.6417926,12.88133007,7.67
152179089898,-0.15541229,-0.5714661,9.693067,0.014408874,-0.03601532,-0.048684694,77.6417926,12.88133007,7.67
152179089919,-0.055993654,-0.20931244,9.810077,-0.013935852,-0.08891449,-0.041477967,77.64183947,12.88127687,7.71
152179089941,-0.42233276,-0.36101532,9.757437,0.022102356,-0.07755432,0.026443481,77.64183947,12.88127687,7.71
152179089962,-0.22971344,-0.45122832,9.650479,-0.009417725,-0.031495668,0.05111084,77.64183947,12.88127687,7.71
152179089984,-0.077531435,-0.32799378,9.56003,-0.0053833006,0.006491089,0.049041748,77.64183947,12.88127687,7.71
152179090005,-0.37842712,-0.4779083,10.015264,-0.002696228,0.077955626,0.072618105,77.64183947,12.88127687,7.71
152179090026,0.07716675,-0.2285736,9.674291,-0.005508423,0.15174103,0.04598999,77.64187425,12.88122001,7.66
152179090047,0.033140562,-0.4619934,9.934384,-0.014546203,0.128656,-0.051496886,77.64187425,12.88122001,7.66
152179090068,0.21607056,-0.123887636,9.916919,0.032489013,0.06537171,-0.10402374,77.64187425,12.88122001,7.66
152179090090,0.083747864,-0.6360687,9.925412,-0.0029403686,-0.0068191527,-0.12259521,77.64187425,12.88122001,7.66
152179090111,0.07525177,-0.35084534,9.355205,-0.031158447,-0.10113373,-0.11893616,77.64192174,12.8811581,7.82
152179090132,-0.1194046,-0.55567324,10.083217,0.04824829,-0.16123962,-0.0893692,77.64192174,12.8811581,7.82
152179090153,-0.45128632,-0.6030518,9.845853,-0.02199707,-0.1948349,-0.008981323,77.64192174,12.8811581,7.82
152179090175,-0.6927231,-0.6503067,9.762222,0.013063049,-0.099789426,0.10779877,77.64192174,12.8811581,7.82
152179090196,-0.19884491,-0.62279207,9.646294,-0.007092285,0.026766967,0.12184753,77.64192174,12.8811581,7.82
152179090217,0.044146728,-0.41796416,10.359713,0.026869202,0.11570587,0.09485016,77.64195469,12.88109482,7.62
152179090238,0.22432557,-0.8924637,9.967888,-0.029692078,0.107522584,0.0029907227,77.64195469,12.88109482,7.62
152179090260,0.24442443,-0.45074767,9.918116,-0.01308136,0.055108644,-0.023518372,77.64195469,12.88109482,7.62
152179090281,0.11976013,-0.7535599,9.998636,0.030166626,-1.0375977E-4,-0.055891417,77.64195469,12.88109482,7.62
152179090302,0.06065979,-0.7993805,9.275642,-0.020410156,-0.050065614,-0.037075806,77.64195469,12.88109482,7.62
152179090323,0.096669,-0.80464476,9.475563,0.01489563,-0.030027771,6.744385E-4,77.64199632,12.88103262,7.49
152179090345,0.084106445,-0.63666993,9.75062,-0.0035507202,-0.02575531,0.0028701783,77.64199632,12.88103262,7.49
152179090366,-0.015077209,-0.68679965,9.826469,0.0073196413,-0.02551117,0.016549682,77.64199632,12.88103262,7.49
152179090387,-0.19274291,-0.6692093,10.118034,0.008906555,-0.011950684,0.028768921,77.64199632,12.88103262,7.49
152179090408,-0.048457336,-0.7346573,9.623441,-0.011860657,0.0146698,0.03841553,77.64199632,12.88103262,7.49
152179090430,-0.13124847,-0.70366824,9.594609,-2.532959E-4,0.054864503,0.040000916,77.64202685,12.88097561,7.16
152179090451,0.02153473,-0.5347351,9.828023,-0.0020874024,0.061216734,-0.0010406494,77.64202685,12.88097561,7.16
152179090472,0.21810761,-0.7902878,9.522344,-0.0028182983,0.06549225,-0.018510437,77.64202685,12.88097561,7.16
152179090493,0.2935974,-0.7307068,9.582041,0.0039016723,0.061216734,-0.051127624,77.64202685,12.88097561,7.16
152179090515,0.06544342,-0.3108856,9.948027,0.02185974,-0.0020584106,-0.104637146,77.64206182,12.88091699,7.08
152179090536,-0.10588531,-0.5081741,9.653468,0.0014602661,-0.070224,-0.070799254,77.64206182,12.88091699,7.08
152179090557,-0.2500519,-0.21158448,9.738772,-0.0066085816,-0.049938966,-0.00824585,77.64206182,12.88091699,7.08
152179090578,-0.39326325,-0.02255249,10.083101,0.007321167,-0.0018173218,0.007881165,77.64206182,12.88091699,7.08
152179090600,0.118083194,-0.5212158,9.678116,0.0014556885,0.014305115,-0.010568237,77.64206182,12.88091699,7.08
152179090621,0.04534302,-0.28097686,10.026392,-0.0013534545,-0.00632782,-0.03939972,77.64208473,12.88086698,6.9
152179090642,-0.12646484,-0.5065018,9.225275,-0.0061218264,-0.022819519,-0.027548218,77.64208473,12.88086698,6.9
152179090663,-0.2724243,-0.11323853,10.030098,-0.009170532,-0.027952576,-0.013377381,77.64208473,12.88086698,6.9
152179090685,-0.11593475,-0.30430603,9.485373,0.008540344,-0.026608277,-1.8310547E-4,77.64208473,12.88086698,6.9
152179090706,-0.10480652,-0.18334961,10.127251,-0.0047698976,-0.0137786865,0.013369751,77.64208473,12.88086698,6.9
152179090727,-0.02261505,-0.21385956,9.7901,0.01966095,-0.0088943485,0.003114319,77.64211391,12.880807,7.0
152179090748,-0.1519455,-0.312442,9.461203,-0.023709107,-0.0016845703,0.015216065,77.64211391,12.880807,7.0
152179090770,-0.064129636,-0.23515472,9.807686,-0.0053848266,0.03348694,0.019485474,77.64211391,12.880807,7.0
152179090791,-0.0017944336,-0.2078766,10.121508,0.016360473,0.049121093,-0.0037277222,77.64211391,12.880807,7.0
152179090812,-0.073580936,-0.13932495,10.072212,-0.010147095,0.026763916,-0.017286683,77.64214339,12.88074507,7.18
152179090833,-0.12849426,-0.08871307,10.257777,-0.009541321,0.03079834,-0.03329315,77.64214339,12.88074507,7.18
152179090855,-0.08985138,-0.1832306,9.842502,0.0014587402,0.023709107,-0.039276123,77.64214339,12.88074507,7.18
152179090876,-0.094395444,-0.398703,10.125691,0.0021881103,0.0331192,-0.027427673,77.64214339,12.88074507,7.18
152179090897,-0.21535644,-0.26410523,9.89694,0.004753113,0.048391722,-0.04599762,77.64214339,12.88074507,7.18
152179090918,0.123110965,-0.2889908,9.779091,-0.018943787,0.037028503,-0.07287292,77.64217117,12.88068932,7.29
152179090940,-0.0049072267,-0.24807587,9.661003,0.013430786,8.7280275E-4,-0.08765869,77.64217117,12.88068932,7.29
152179090961,0.033859253,-0.42562255,9.700488,0.011842346,-0.016711425,-0.0826477,77.64217117,12.88068932,7.29
152179090982,-0.246344,-0.20895234,9.184115,-0.002935791,-0.026487732,-0.060415648,77.64217117,12.88068932,7.29
152179091003,-0.3047287,-0.13106385,10.05271,-0.012950134,-0.026733398,-0.05051575,77.64217117,12.88068932,7.29
152179091025,-0.18329163,-0.5429886,9.645693,0.009278869,0.006491089,-0.04746399,77.64219621,12.88063054,7.41
152179091046,-0.30090028,-0.1000824,9.909739,-0.010023499,-0.022084046,-0.046362303,77.64219621,12.88063054,7.41
152179091067,-0.2122467,-0.5538788,9.959272,0.061807252,0.008816528,-0.03707733,77.64219621,12.88063054,7.41
152179091089,-0.252565,-0.5423935,9.825155,-0.051800538,0.04436035,-0.015940856,77.64219621,12.88063054,7.41
152179091110,0.1525406,-0.7709061,9.575818,-0.055462647,0.043138124,-0.064567566,77.64219621,12.88063054,7.41
152179091131,0.19118652,-0.7430313,9.760907,0.064863585,-0.014515686,-0.11563263,77.64221513,12.88056836,7.45
152179091152,-0.4207794,-0.60400695,9.461085,-0.021873474,-0.098809816,-0.090342715,77.64221513,12.88056836,7.45
152179091174,-0.2662033,-0.8944977,10.296061,0.0042663575,-0.105285645,-0.027180482,77.64221513,12.88056836,7.45
152179091195,-0.6272812,-0.6426498,9.53215,0.017214965,-0.06912384,0.018013,77.64221513,12.88056836,7.45
152179091216,-0.17826691,-0.8534576,10.403499,-0.037754823,0.016879272,0.05710144,77.64223697,12.88049806,7.48
152179091237,0.033978272,-0.34797516,9.726332,-0.0046478272,0.062805176,0.02412262,77.64223697,12.88049806,7.48
152179091259,0.2963501,-0.9010773,9.585991,0.014283752,0.0075912476,-0.063101195,77.64223697,12.88049806,7.48
152179091280,-0.18747863,-0.5610565,9.640905,-0.039460756,-0.028323364,-0.026202392,77.64223697,12.88049806,7.48
152179091301,-0.06903229,-0.7800003,9.45367,0.034443665,-0.020011902,-0.007635498,77.64223697,12.88049806,7.48
152179091322,-0.032902528,-0.7218521,9.767009,0.005123901,-0.017448425,-0.01325531,77.64226131,12.88044327,7.3
152179091344,0.11485596,-0.7571472,9.723936,-0.024438476,-0.018791199,-0.0023834228,77.64226131,12.88044327,7.3
152179091365,-0.063409425,-0.6684936,9.398874,-7.6293945E-6,-0.0037658692,0.008488464,77.64226131,12.88044327,7.3
152179091386,0.017346192,-0.48771667,9.599031,0.034809876,0.0040481566,0.007633972,77.64226131,12.88044327,7.3
152179091407,0.030027771,-0.58306885,9.994802,-0.018571472,-0.017201234,-0.008125305,77.64226131,12.88044327,7.3
152179091429,-0.015196228,-0.42562255,9.274208,-0.02419281,-0.06961517,-0.010325623,77.64228701,12.88037446,7.36
152179091450,-0.14716034,-0.74578094,9.931994,0.08196869,-0.053977966,0.03316345,77.64228701,12.88037446,7.36
152179091471,-0.36418915,-0.7853836,9.231972,-0.023458863,-0.006945801,0.084588625,77.64228701,12.88037446,7.36
152179091492,-0.16558227,-0.46199188,9.547827,-0.03677521,0.038978577,0.07494049,77.64228701,12.88037446,7.36
152179091514,0.05001068,-0.49980012,9.995524,0.028089905,0.08076477,0.046107482,77.64230449,12.88030863,7.43
152179091535,0.25495148,-0.5975479,9.834247,-0.005873108,0.06781463,-0.0015289306,77.64230449,12.88030863,7.43
152179091556,-0.029193114,-0.7524811,9.751337,-0.014427185,0.019680787,-0.043188475,77.64230449,12.88030863,7.43
152179091577,-0.16354981,-0.40456542,9.990137,0.022839356,-0.0306427,-0.035369873,77.64230449,12.88030863,7.43
152179091599,-0.25950012,-0.6552124,10.456022,0.06559448,-0.028317261,0.0067779543,77.64230449,12.88030863,7.43
152179091620,-0.12059937,-0.5031525,9.644017,-0.023458863,0.028355408,0.041589357,77.64232884,12.88024478,7.38
152179091641,0.11569061,-0.48652345,9.881027,-0.017234802,0.056085207,0.005921936,77.64232884,12.88024478,7.38
152179091662,-0.12430725,-0.26255187,9.29012,0.016609192,-9.552002E-4,-0.048318483,77.64232884,12.88024478,7.38
152179091684,-0.21499786,-0.4453644,10.078913,6.1340333E-4,-0.034916688,-0.0054397583,77.64232884,12.88024478,7.38
152179091705,-0.26752168,-0.6160904,9.770357,-0.0277359,0.010398865,0.0108078,77.64232884,12.88024478,7.38
152179091726,-0.29958192,-0.14195557,9.8024235,-0.020899963,0.0115005495,0.01752777,77.64234963,12.88018536,7.33
152179091747,-0.26632386,-0.7875351,9.124296,0.029800415,0.063414,0.01569519,77.64234963,12.88018536,7.33
152179091769,0.04007721,-0.24292907,9.924457,-0.012957764,0.0701355,-0.02975006,77.64234963,12.88018536,7.33
152179091790,-0.16905364,-0.3148346,9.760188,-0.025660705,0.003930664,-0.07311859,77.64234963,12.88018536,7.33
152179091812,0.03242035,-0.5074585,9.70049,0.04042816,-0.06863403,-0.073731996,77.64234963,12.88018536,7.33
152179091833,-0.15361938,-0.37477264,9.66998,0.0057342527,-0.15048829,-0.062246703,77.64237375,12.88013121,7.34
152179091854,-0.66401064,-0.95539397,9.770717,-0.009661865,-0.12226562,0.05258789,77.64237375,12.88013121,7.34
152179091875,-0.6323074,-0.9072968,9.812233,0.009031678,-0.015496826,0.12490387,77.64237375,12.88013121,7.34
152179091896,-0.2727844,-1.2206405,10.320467,0.013919068,0.10238953,0.11622925,77.64237375,12.88013121,7.34
152179091918,0.24538422,-0.7485336,8.967567,-0.035554506,0.17214814,0.046969604,77.64239522,12.88006528,7.36
152179091939,0.06807556,-0.8992813,10.143878,0.009033203,0.12303467,-0.0795929,77.64239522,12.88006528,7.36
152179091960,0.14464721,-0.6933792,10.743162,0.047024537,-0.007192993,-0.14373474,77.64239522,12.88006528,7.36
152179091981,-0.31417847,-1.1153519,9.273249,-0.03604584,-0.12690887,-0.119543456,77.64239522,12.88006528,7.36
152179092002,0.21176147,-1.5227311,8.448563,0.004508972,-0.1413269,7.949829E-4,77.64239522,12.88006528,7.36
152179092024,0.18747711,-0.8054825,9.062918,0.017337035,-0.08513031,0.0417099,77.64241768,12.88000233,6.97
152179092045,-0.2329422,-0.3137558,9.069499,-0.008070374,-0.05812683,0.056243896,77.64241768,12.88000233,6.97
152179092066,-0.07501526,-0.87642825,9.454147,0.0075668334,-0.043833923,0.08043213,77.64241768,12.88000233,6.97
152179092087,0.00705719,-1.528836,8.328323,0.0031661987,-0.0044921874,0.08751984,77.64241768,12.88000233,6.97
152179092109,-0.1606781,-1.0808976,9.974466,-0.01833191,-0.0046173097,0.0799469,77.64241768,12.88000233,6.97
152179092130,0.244664,-0.20285034,9.764135,0.020391846,-0.03980255,0.050741576,77.64243736,12.87994155,6.55
152179092151,-0.4722244,-1.399382,9.445894,-0.013328552,-0.03833618,0.09985809,77.64243736,12.87994155,6.55
152179092173,-0.18604279,-0.55411834,10.021126,0.03297577,0.04484558,0.1790268,77.64243736,12.87994155,6.55
152179092194,-0.15050964,-1.28405,10.103322,0.010253906,0.1188797,0.11818542,77.64243736,12.87994155,6.55
152179092215,0.6416336,-0.66131437,9.145952,-1.2207031E-5,0.10605164,0.037190247,77.64246148,12.87989091,6.19
152179092236,0.089848325,-0.6046051,10.558911,0.03627472,0.027377319,-0.04489746,77.64246148,12.87989091,6.19
152179092258,-0.09619293,-0.5896484,11.797678,-2.5024413E-4,-0.034428407,-0.020704651,77.64246148,12.87989091,6.19
152179092279,-0.25782776,0.032006837,11.416983,0.049351502,-0.044075012,0.013619995,77.64246148,12.87989091,6.19
152179092300,0.5265381,-1.4595581,8.81395,-0.002935791,-0.019769287,0.032066345,77.64246148,12.87989091,6.19
152179092321,-0.14512482,0.054138184,9.540525,-0.06536102,-0.07926331,0.038539123,77.64249069,12.87984809,5.8
152179092343,-0.47150725,-0.275354,10.527448,0.09577179,-0.1024765,0.036219787,77.64249069,12.87984809,5.8
152179092364,0.2293518,-0.778804,8.4275055,-0.027250672,-0.12361145,0.12417297,77.64249069,12.87984809,5.8
152179092385,-0.6908081,-0.026260376,11.124697,0.031507872,-0.07865448,0.19038697,77.64249069,12.87984809,5.8
152179092406,0.28749695,-0.6909851,8.928683,0.033955384,-0.016342163,0.2151886,77.64249069,12.87984809,5.8
152179092428,-0.15003052,-0.33684844,10.713968,0.013548279,0.0045394897,0.20187072,77.64250809,12.8797985,5.64
152179092449,0.11210022,-0.49692994,8.94651,0.022836303,0.041796874,0.21201019,77.64250809,12.8797985,5.64
152179092470,-0.8501709,-0.48436585,11.394725,-0.00929718,0.06536865,0.19307403,77.64250809,12.8797985,5.64
152179092491,-0.27900544,-0.8310852,12.891559,0.024179077,0.047172546,0.13760987,77.64250809,12.8797985,5.64
152179092513,-0.037091065,-1.253299,12.0483265,-0.008198547,-0.012319947,0.1069458,77.64253402,12.87976259,5.32
152179092534,-0.7558945,-0.3690323,11.201266,0.029066468,-0.036138915,0.15361328,77.64253402,12.87976259,5.32
152179092555,-0.4341812,-0.29497528,9.6308565,0.03138733,-0.018176269,0.18636017,77.64253402,12.87976259,5.32
152179092576,0.51624906,-1.0969284,8.404655,0.019903565,-0.005718994,0.20773467,77.64253402,12.87976259,5.32
152179092598,-0.03625183,-0.5421524,8.246013,0.028211975,0.023101807,0.20309448,77.64253402,12.87976259,5.32
152179092619,-1.0224533,-0.11228027,10.773549,0.018928528,0.06085205,0.21494445,77.64256439,12.8797276,5.21
152179092640,-0.27601624,-0.23575135,11.547628,0.016362,0.09383545,0.18293457,77.64256439,12.8797276,5.21
152179092661,0.9187225,-1.0387847,8.057696,0.0078063966,0.089193724,0.13956451,77.64256439,12.8797276,5.21
152179092683,-1.0831115,0.4154541,11.209523,-7.6293945E-6,0.100068666,0.106335446,77.64256439,12.8797276,5.21
152179092704,0.83856356,-1.1088928,9.041147,0.0078079225,0.10849762,0.08275299,77.64256439,12.8797276,5.21
152179092725,-0.6080185,-0.27008972,10.963179,-0.0152771,0.111550905,0.017044067,77.64260101,12.87970621,4.72
152179092746,0.12801361,-0.31519166,9.461565,0.0043914793,0.07758331,-0.041477967,77.64260101,12.87970621,4.72
152179092768,0.53013,-0.43399963,9.396601,0.009030151,0.019685363,-0.092056274,77.64260101,12.87970621,4.72
152179092789,-0.18700103,-0.32464448,10.119113,0.0050003054,-0.03931427,-0.084970094,77.64260101,12.87970621,4.72
152179092810,-0.7082779,-0.11778717,10.343323,-0.015646363,-0.040046692,-0.0153335575,77.64260101,12.87970621,4.72
152179092831,-0.35402068,0.014297485,10.038473,0.028334046,-0.010604858,0.006903076,77.64265628,12.87966674,5.25
152179092853,-0.25555268,-0.06969299,9.915962,-0.0044036866,0.006614685,5.493164E-4,77.64265628,12.87966674,5.25
152179092874,-0.14704132,-0.13477325,9.552971,0.0036605834,0.017724609,-0.0058029173,77.64265628,12.87966674,5.25
152179092895,0.28426513,-0.5593826,9.335104,0.025033569,0.016015625,-0.029504394,77.64265628,12.87966674,5.25
152179092916,0.2620117,-0.45565185,9.522824,6.04248E-4,-0.05519409,-0.08423767,77.64270262,12.87964338,5.47
152179092938,-0.19932556,-0.5482559,9.670339,0.024913024,-0.06888123,-0.010444641,77.64270262,12.87964338,5.47
152179092959,0.10492401,-0.5244476,9.987506,-2.5024413E-4,-0.037852477,0.045617677,77.64270262,12.87964338,5.47
152179092980,0.039718628,-0.46247253,9.77706,-0.009170532,-0.022328187,0.027792359,77.64270262,12.87964338,5.47
152179093001,-0.511467,-0.32787323,10.2363615,-0.016256714,-0.023190308,0.044644166,77.64270262,12.87964338,5.47
152179093023,-0.47246552,-0.22319336,9.812114,-0.0029403686,-0.017819215,0.053923033,77.64273896,12.87962109,5.43
152179093044,-0.18831787,-0.2740387,9.246449,-0.019921875,0.017976379,0.0720047,77.64273896,12.87962109,5.43
152179093065,0.040078737,-0.033319093,11.173749,0.03615875,0.061705016,0.06125946,77.64273896,12.87962109,5.43
152179093087,0.15014954,-1.5874557,7.3534865,-0.11362152,0.09628449,0.035723876,77.64273896,12.87962109,5.43
152179093108,-0.16043854,0.76767886,10.383759,-0.010998535,0.083695985,-0.03964386,77.64273896,12.87962109,5.43
152179093129,0.032060243,-0.5999405,10.082741,0.08856354,0.07807617,-0.05418396,77.64278038,12.87960331,5.41
152179093150,0.10324707,-0.06693725,9.6308565,-0.04324951,-0.020622253,-0.113801576,77.64278038,12.87960331,5.41
152179093172,0.13794556,-0.40420836,9.564336,0.08429108,-0.08366394,-0.12125702,77.64278038,12.87960331,5.41
152179093193,-0.13782959,-0.4964508,9.416941,-0.046302795,-0.13375092,-0.032069396,77.64278038,12.87960331,5.41
152179093214,-0.25364074,-0.40121612,9.561107,0.024058532,-0.05715332,0.07383575,77.64282288,12.87958352,5.41
152179093235,-0.049412537,-0.587619,9.587667,3.5705566E-4,0.026031494,0.09289551,77.64282288,12.87958352,5.41
152179093257,-0.014717102,-0.42478332,9.798712,-0.0014770508,0.045336913,0.05783386,77.64282288,12.87958352,5.41
152179093278,0.08841248,-0.44069976,9.767609,0.001210022,0.02639923,-4.272461E-4,77.64282288,12.87958352,5.41
152179093299,0.019737244,-0.5435898,9.604057,0.011593628,-0.005593872,-0.025105286,77.64282288,12.87958352,5.41
152179093320,0.026200866,-0.511882,10.018614,-0.0064849854,-0.04798584,-0.023031617,77.64287079,12.87955642,5.54
152179093342,-0.28821564,-0.43926087,9.700605,0.0039016723,-0.058374025,0.027546693,77.64287079,12.87955642,5.54
152179093363,-0.33535463,-0.44548494,9.497337,-9.857178E-4,-0.017079163,0.08886719,77.64287079,12.87955642,5.54
152179093384,-0.08338928,-0.41509706,9.851355,0.0021911622,0.015165711,0.08287964,77.64287079,12.87955642,5.54
152179093405,-0.26033935,-0.2645828,9.884497,0.008543396,0.04753723,0.05673065,77.64287079,12.87955642,5.54
152179093427,-0.2471817,-0.16875306,9.834127,0.0047546388,0.08760376,0.066265866,77.642906,12.87953498,5.36
152179093448,-0.0668808,-0.11491547,10.081065,0.0034118653,0.14013824,0.02021637,77.642906,12.87953498,5.36
152179093469,0.1532608,-0.24687958,9.7122135,-0.0053833006,0.097746275,-0.093891904,77.642906,12.87953498,5.36
152179093490,0.25937805,-0.3155548,10.143518,-0.009169007,-0.006454468,-0.15314484,77.642906,12.87953498,5.36
152179093512,-0.5048889,-1.31707,11.59034,-3.7841796E-4,-0.08341827,-0.13053437,77.6429619,12.87950675,5.66
152179093533,-0.2427536,-1.3491303,11.225675,0.0078079225,-0.119212344,-0.070307925,77.6429619,12.87950675,5.66
152179093554,-0.45272368,-0.8058441,11.03042,-0.0069702147,-0.113471985,0.0025039674,77.6429619,12.87950675,5.66
152179093575,-0.7763519,-0.2138565,9.220129,0.00866394,-0.06472778,0.07823791,77.6429619,12.87950675,5.66
152179093597,0.18544312,-0.92644197,8.835123,0.02577057,0.001852417,0.10157013,77.6429619,12.87950675,5.66
152179093618,-0.5735626,-0.24556275,8.43923,0.023812866,0.045944214,0.06797638,77.6430051,12.87947598,5.49
152179093639,-0.6650864,-0.27236176,12.210559,-0.016990662,0.06011963,0.04709015,77.6430051,12.87947598,5.49
152179093660,0.7838852,-0.84664,8.333827,0.004389954,0.054130554,-0.0018951416,77.6430051,12.87947598,5.49
152179093682,-0.8359329,0.38075867,11.258215,0.0047546388,0.0326355,-0.038298033,77.6430051,12.87947598,5.49
152179093703,1.0141952,-0.9035904,8.581843,8.4533694E-4,-0.022453308,-0.07556305,77.6430051,12.87947598,5.49
152179093724,-0.79944456,-0.12197266,10.650678,0.015136719,-0.056906126,-0.0326828,77.64304514,12.87945495,5.26
152179093745,0.04510193,-0.5030304,8.496176,-0.023217773,-0.046643067,0.023147583,77.64304514,12.87945495,5.26
152179093767,-0.4347763,-0.04660034,10.0012665,0.00463562,0.011862183,0.075914,77.64304514,12.87945495,5.26
152179093788,-0.49077147,0.03714905,10.281107,-0.015156555,0.070869446,0.06369629,77.64304514,12.87945495,5.26
152179093809,0.3828476,-0.69996184,8.866707,-0.016134644,0.07477875,0.0026260377,77.64304514,12.87945495,5.26
152179093831,0.0066970824,-0.24628143,10.082743,-0.041908264,0.05730896,-0.043312073,77.64309645,12.87942771,5.4
152179093852,-0.33715057,-0.45996094,9.47652,0.12961426,0.042524718,-0.078862,77.64309645,12.87942771,5.4
152179093873,-0.13411713,-0.5108078,10.877161,-0.064143375,0.0044174194,-0.099020384,77.64309645,12.87942771,5.4
152179093894,0.28689727,-0.20560455,8.9008045,-0.011488343,-0.06863403,-0.102565005,77.64309645,12.87942771,5.4
152179093915,-0.20303039,-0.25908357,10.291394,0.0394516,-0.07205658,-0.05870056,77.64313151,12.87940991,5.31
152179093937,-0.5942581,-0.07136536,10.633449,-0.041415405,-0.055441283,0.02156372,77.64313151,12.87940991,5.31
152179093958,-0.72215575,0.040260315,9.752174,0.032611083,-0.024041748,0.032922365,77.64313151,12.87940991,5.31
152179093979,-0.16199493,-0.06334686,9.961307,-0.0012298584,0.013206482,0.04891815,77.64313151,12.87940991,5.31
152179094000,0.18807526,-0.37094727,9.436798,0.0012130737,0.031282045,0.0073898314,77.64313151,12.87940991,5.31
152179094022,0.07262115,-0.3911682,9.799669,0.01159668,-0.0066986084,-0.043551635,77.64317024,12.87937925,5.27
152179094043,0.0023925782,-0.47706756,9.613986,-0.019061279,-0.024531554,-0.012521362,77.64317024,12.87937925,5.27
152179094064,0.17036743,-0.40325013,9.53275,0.022592163,-0.03394165,-7.949829E-4,77.64317024,12.87937925,5.27
152179094085,0.2812729,-0.6950531,9.793928,0.014161682,-0.052023314,-0.00506897,77.64317024,12.87937925,5.27
152179094107,-0.23114625,-0.5456238,9.066988,-0.025785828,-0.057273865,0.04281006,77.64317024,12.87937925,5.27
152179094128,-0.18652344,-0.43662873,9.648445,0.018925477,-0.025996398,0.09264984,77.6432212,12.87933574,5.57
152179094149,-0.054678343,-0.51020813,10.222842,-1.3275146E-4,-0.015489196,0.083244324,77.6432212,12.87933574,5.57
152179094171,-0.29766998,-0.6028107,9.401982,-0.0245636,-0.0068176268,0.11244507,77.6432212,12.87933574,5.57
152179094192,-0.41994172,-0.47658843,9.529642,0.02406006,0.09762573,0.15789032,77.6432212,12.87933574,5.57
152179094213,0.1421341,-0.5482529,10.187309,-0.036169432,0.20659943,0.111953735,77.64325369,12.87932156,5.16
152179094234,0.5185226,-0.4709671,9.612671,9.6588134E-4,0.18876342,-0.064445496,77.64325369,12.87932156,5.16
152179094256,0.20290986,-0.47778624,9.9835615,0.012330627,0.0884613,-0.18234253,77.64325369,12.87932156,5.16
152179094277,0.015911866,-0.23623046,9.713053,0.021495055,-0.011099244,-0.18918152,77.64325369,12.87932156,5.16
152179094298,-0.18412933,-0.45912322,9.967647,0.02149353,-0.09526978,-0.18063354,77.64325369,12.87932156,5.16
152179094319,-0.59904325,-0.36592254,9.703122,0.026989747,-0.14865723,-0.097918704,77.64329721,12.87930014,5.09
152179094341,-0.74237365,-0.1281952,9.770357,-0.021263123,-0.062278748,0.0450119,77.64329721,12.87930014,5.09
152179094362,0.13495636,-0.31914216,9.575941,0.019296264,0.013818359,0.016308594,77.64329721,12.87930014,5.09
152179094383,-0.16044159,-0.12939301,10.266272,0.014163208,-0.0060836794,-0.03585968,77.64329721,12.87930014,5.09
152179094404,-0.22360992,-0.13692932,10.221288,0.0051223757,-0.014512634,-0.03500061,77.64329721,12.87930014,5.09
152179094426,0.0033477782,-0.30071718,9.906988,0.026016235,-0.022213746,-0.040742494,77.64331075,12.87927091,4.66
152179094447,0.07202301,-0.13716888,9.98667,0.01184082,-0.049212646,-0.037812807,77.64331075,12.87927091,4.66
152179094468,-0.30783692,-0.27104798,9.949099,-0.023701478,-0.06851349,-0.0018920898,77.64331075,12.87927091,4.66
152179094489,-0.5288147,-0.041096497,10.417738,-0.0012313842,-0.03491516,0.05282898,77.64331075,12.87927091,4.66
152179094511,-0.1902298,-0.13417359,10.420488,0.0014572144,0.015649414,0.06161804,77.64335539,12.87924818,5.06
152179094532,-0.38058013,-0.07651367,10.376703,-0.017602539,0.03764038,0.04952545,77.64335539,12.87924818,5.06
152179094553,-0.21427917,-0.04624176,9.976497,0.012573242,0.051074218,0.018385315,77.64335539,12.87924818,5.06
152179094574,-0.023690796,-0.08488464,10.159075,-0.006729126,0.027255248,-0.026205445,77.64335539,12.87924818,5.06
152179094596,0.08518372,-0.56057894,9.872652,-0.005871582,-0.029907227,-0.05747986,77.64335539,12.87924818,5.06
152179094617,0.38009796,-0.91339874,8.979767,-0.011737061,-0.06277313,-0.008981323,77.64340974,12.87921418,5.41
152179094638,-1.031427,-0.31567383,10.862325,0.016728211,-0.012805176,0.0700531,77.64340974,12.87921418,5.41
152179094659,0.72035676,-0.93708956,8.870656,0.0065872194,0.025424194,0.056491088,77.64340974,12.87921418,5.41
152179094681,-1.0118072,-0.41067046,11.512932,-0.0040390017,0.060113527,0.052459717,77.64340974,12.87921418,5.41
152179094702,0.12633972,-0.42861634,9.9101,0.012574768,0.07087097,0.0102005005,77.64340974,12.87921418,5.41
152179094723,1.1873169,-1.4614716,8.268145,-0.023342896,0.01357727,-0.07935028,77.64345583,12.87918893,5.26
152179094744,0.2585434,-0.5019547,7.86555,0.029309083,-0.045298766,-0.05919037,77.64345583,12.87918893,5.26
152179094766,-0.42101747,-0.13991852,9.367289,-0.0035507202,-0.07168732,-0.033050537,77.64345583,12.87918893,5.26
152179094787,-0.5583664,-0.012625122,9.003939,-0.021022033,-0.10027771,-0.004336548,77.64345583,12.87918893,5.26
152179094808,-0.34636077,-0.49310303,8.522023,-0.012715149,-0.065093994,0.06944275,77.64345583,12.87918893,5.26
152179094829,0.52953184,-0.41425475,8.950937,-0.077581786,-0.031011963,0.10645447,77.64350992,12.87916429,5.29
152179094851,0.5642258,-0.3126816,9.800148,0.21330567,0.038499452,0.010430908,77.64350992,12.87916429,5.29
152179094872,-0.34648284,-1.4514282,9.414905,-0.036405943,0.06463623,0.19454193,77.64350992,12.87916429,5.29
152179094893,0.23018798,-0.4490738,8.952492,-0.067807004,0.08003082,0.11048584,77.64350992,12.87916429,5.29
152179094914,1.1176865,-1.5282364,8.745152,0.044581603,0.09689178,-0.00617218,77.64356192,12.87914093,5.11
152179094936,0.5943756,-0.71898043,6.70587,-0.0401947,0.025425721,-0.039274596,77.64356192,12.87914093,5.11
152179094957,-0.38716125,0.1482956,9.085533,0.028820802,0.003439331,-0.04893036,77.64356192,12.87914093,5.11
152179094978,-0.6325439,0.23587342,9.159231,-0.01649933,-0.057518005,-0.040132143,77.64356192,12.87914093,5.11
152179094999,-0.6087372,-0.06694031,8.647525,0.0014572144,-0.091603085,0.0028686523,77.64356192,12.87914093,5.11
152179095021,0.11437531,-1.0398605,8.330118,-0.0017181396,-0.03796997,0.10449982,77.64358205,12.87912977,5.23
152179095042,0.34767762,-1.6395004,7.9058714,0.0047561647,0.054252625,0.1498291,77.64358205,12.87912977,5.23
152179095063,0.030267334,-0.47515258,8.939331,-0.0166214,0.100924686,0.059057616,77.64358205,12.87912977,5.23
152179095084,0.30771637,-0.26410675,11.093231,0.0010894776,0.026768494,-0.05943451,77.64358205,12.87912977,5.23
152179095106,-0.9200424,0.032844543,10.876918,0.002067566,-0.035647582,-0.03903351,77.64358205,12.87912977,5.23
152179095127,-0.0731018,-0.91651,8.77901,-0.010881042,0.025186157,0.07859802,77.64363505,12.87910327,5.04
152179095148,-0.43621215,-0.4377075,9.187947,-0.005632019,0.10214386,0.06712036,77.64363505,12.87910327,5.04
152179095169,0.010287476,-0.42239076,11.967807,0.0047561647,0.08614044,-0.060656738,77.64363505,12.87910327,5.04
152179095191,-0.13531342,-0.3964325,8.919713,-0.009906006,0.03348694,-0.10256042,77.64363505,12.87910327,5.04
152179095212,-0.74058074,-0.3990631,9.582042,0.024914552,0.0013580322,-0.07947693,77.64368573,12.87908,5.03
152179095234,0.44087523,-1.1163117,11.317317,0.011599732,0.0012420655,-0.048561096,77.64368573,12.87908,5.03
152179095254,0.15696716,-0.2726013,9.300169,0.0024353028,-0.04261322,-0.1791687,77.64368573,12.87908,5.03
152179095276,-0.6509674,-0.485083,9.791658,0.021492004,-0.1006424,-0.10463867,77.64368573,12.87908,5.03
152179095297,-0.37268525,-0.30693817,9.613031,0.0029251098,-0.055322267,0.013615417,77.64368573,12.87908,5.03
152179095318,-0.912265,-0.50255126,10.230978,0.004145813,0.035560608,0.08421936,77.64371851,12.87906764,4.95
152179095339,0.10683594,-0.08919068,9.30555,-0.012225342,0.1089859,0.042811584,77.64371851,12.87906764,4.95
152179095361,0.1040863,-1.0685714,8.141208,0.004878235,0.11643982,-0.06664429,77.64371851,12.87906764,4.95
152179095382,-0.16163483,0.18825531,10.577336,0.021372985,0.08870544,-0.12919769,77.64371851,12.87906764,4.95
152179095403,-0.2136795,0.37489623,12.053233,0.0107421875,0.02872162,-0.19687958,77.64371851,12.87906764,4.95
152179095425,-0.51756746,0.21601105,12.322905,-0.0033050538,-0.0035186769,-0.1919922,77.64376539,12.8790527,4.73
152179095446,-0.0880539,-0.44727936,10.923223,0.031755067,-0.055807494,-0.19529419,77.64376539,12.8790527,4.73
152179095467,-0.57763064,-0.8742752,10.682622,-0.009170532,-0.060572814,-0.13835755,77.64376539,12.8790527,4.73
152179095488,-0.66735995,-0.72484744,9.529762,-0.019682312,-0.0036453246,-0.078128055,77.64376539,12.8790527,4.73
152179095510,0.1714447,-0.64420474,10.060608,0.006590271,-0.0016860962,-0.13469544,77.64376539,12.8790527,4.73
152179095531,-0.32099915,-0.99152374,9.688525,-0.01833496,-0.006091309,-0.13713685,77.64380874,12.87902653,4.84
152179095552,-0.13686828,-0.9556335,9.400665,-0.0055038454,0.025906373,-0.07091828,77.64380874,12.87902653,4.84
152179095574,-0.21307984,-0.7687561,10.257177,0.007929993,-0.004498291,-0.20042114,77.64380874,12.87902653,4.84
152179095595,-0.41384125,-1.0251434,10.432933,-0.0077026365,-0.029418945,-0.14019318,77.64380874,12.87902653,4.84
152179095616,-0.24418946,-1.2373886,9.437877,0.0014587402,0.005633545,-0.11587982,77.64384543,12.879003,4.34
152179095637,0.61734617,-0.9722656,9.528925,-0.0047714235,-0.07523499,-0.2545456,77.64384543,12.879003,4.34
152179095659,-0.002394104,-0.88588256,9.658493,-0.04520569,-0.20888977,-0.2676193,77.64384543,12.879003,4.34
152179095680,-0.6771698,-0.5945557,9.8513565,0.04372864,-0.23760071,-0.042337038,77.64384543,12.879003,4.34
152179095701,-0.5771515,0.06442871,11.0973,0.18935546,-0.14059448,0.19405517,77.64384543,12.879003,4.34
152179095722,0.32829437,-0.07339935,8.969839,0.17249909,-0.07828827,0.24890748,77.64386253,12.87897165,3.92
152179095744,-0.6693939,-0.5112869,10.545393,-0.11422882,-0.050186157,0.23730317,77.64386253,12.87897165,3.92
152179095765,-0.59533536,-0.36161345,9.64294,-0.018206786,0.026281739,0.35128936,77.64386253,12.87897165,3.92
152179095786,0.12609711,-0.019442748,9.531076,0.048124693,0.15626526,0.350679,77.64386253,12.87897165,3.92
152179095807,0.84897155,-1.3425537,7.8273864,-0.0436203,0.16481781,0.18000183,77.64386253,12.87897165,3.92
152179095828,1.2847046,-0.8429306,7.7908964,0.036766052,0.11179809,0.035603333,77.64389283,12.87894401,3.9
152179095850,0.22660065,-0.62530214,8.768724,-0.12082672,0.076609805,-0.021928405,77.64389283,12.87894401,3.9
152179095871,-1.1787064,0.7721054,8.806409,0.050575256,-9.6282957E-4,-0.032437135,77.64389283,12.87894401,3.9
152179095892,0.41814575,-0.6257828,10.274645,0.025653075,0.053274535,-0.028160095,77.64389283,12.87894401,3.9
152179095913,-0.37902373,-0.6335602,9.1638975,-0.0304245,-0.01696167,-0.019364929,77.64392521,12.87892915,4.17
152179095935,-0.6087357,-0.65317994,10.313769,0.018196106,0.04509125,0.02192688,77.64392521,12.87892915,4.17
152179095956,0.6384033,-0.6521042,10.272011,-0.0145431515,0.068547055,-0.01411438,77.64392521,12.87892915,4.17
152179095977,0.4341751,0.2185257,10.61012,0.05191345,-0.09673462,-0.19993286,77.64392521,12.87892915,4.17
152179095999,-1.0039078,-0.5459839,9.764137,-0.06744232,-0.14303894,-0.044534303,77.64392521,12.87892915,4.17
152179096020,-0.43394166,-0.44201356,10.095545,0.07011566,-0.029418945,0.16351013,77.6439603,12.87890173,5.02
152179096041,-0.28737792,-1.0890319,10.59971,-0.020281982,0.11338043,0.17719421,77.6439603,12.87890173,5.02
152179096062,0.037208557,-0.5690735,9.873367,-0.090768434,0.06439362,-0.02986908,77.6439603,12.87890173,5.02
152179096084,0.2207367,-0.6152542,9.737102,0.14048767,0.033363342,-0.044039916,77.6439603,12.87890173,5.02
152179096105,-0.0697525,-1.4544175,8.837156,0.013554382,-0.029541016,-0.08985901,77.6439603,12.87890173,5.02
152179096126,-0.2575882,-0.34019774,7.3403306,-0.05278168,-0.09942627,-0.040621947,77.64400318,12.87888143,4.83
152179096147,-1.1124237,-1.7804382,8.879511,-0.053883363,0.00796051,0.11134644,77.64400318,12.87888143,4.83
152179096169,-0.77707213,0.88911134,9.299452,-0.07757874,0.07709809,0.20516968,77.64400318,12.87888143,4.83
152179096190,0.40570372,-0.8265411,8.549063,0.127417,0.20562592,0.073962405,77.64400318,12.87888143,4.83
152179096211,0.39696807,-0.20895234,8.945193,0.06743469,0.099336244,-0.20017548,77.64403257,12.87885862,4.34
152179096232,0.5862411,-0.3948761,10.663599,0.010493469,-0.06435852,-0.31441194,77.64403257,12.87885862,4.34
152179096254,-0.03876648,0.25346375,9.884618,0.21061707,-0.23662567,-0.30476075,77.64403257,12.87885862,4.34
152179096275,-1.0363312,-0.20093688,10.005693,-0.09394989,-0.3028412,-0.016560365,77.64403257,12.87885862,4.34
152179096296,-0.7025345,0.4646286,9.031215,-0.04520569,-0.14144897,0.2710205,77.64403257,12.87885862,4.34
152179096317,-0.5898331,0.16396943,10.298454,0.030290222,0.08223114,0.31378326,77.64405512,12.87883482,4.18
152179096339,0.2787613,0.3985855,10.346072,-0.08881531,0.11436005,0.13504486,77.64405512,12.87883482,4.18
152179096360,-0.030628968,0.36951143,9.24633,0.07329559,0.08381958,0.03902588,77.64405512,12.87883482,4.18
152179096381,0.37256163,0.24209443,10.60055,-0.05204468,0.025671387,-0.028651427,77.64405512,12.87883482,4.18
152179096402,-0.17659149,0.029373169,9.404379,0.05594635,-0.06643677,-0.040130615,77.64405512,12.87883482,4.18
152179096424,-0.41252595,-0.3725006,9.834727,0.030044556,-0.024162292,0.10340271,77.64410192,12.87880766,4.99
152179096445,-0.1861618,-0.089430235,9.828506,-0.0356781,0.046679687,0.12392731,77.64410192,12.87880766,4.99
152179096466,0.22707519,-0.07243957,9.508824,0.08074646,0.04142456,0.029988099,77.64410192,12.87880766,4.99
152179096487,-0.13077088,0.1147934,10.339971,-0.08148193,-0.028076172,-0.0133804325,77.64410192,12.87880766,4.99
152179096509,0.018305968,-0.24281159,9.313809,-0.021629333,-0.08366241,0.0049438477,77.64410192,12.87880766,4.99
152179096530,-0.29766846,-0.22426605,9.849561,0.021736145,-0.07401276,0.07359314,77.6441381,12.87877157,5.15
152179096551,-0.41814727,-0.17222138,9.576419,-0.0013519287,-0.018180847,0.1492157,77.6441381,12.87877157,5.15
152179096572,-0.16762085,-0.69266355,10.043261,-0.0064849854,0.07172851,0.16839752,77.6441381,12.87877157,5.15
152179096594,0.52953184,-1.3055832,9.051076,-0.026031494,0.089437865,0.07897339,77.6441381,12.87877157,5.15
152179096615,-0.3312866,-0.33888093,10.609281,7.2631834E-4,0.041670226,3.0517578E-4,77.64417309,12.87874714,5.38
152179096636,-0.109233096,-0.7235306,11.310501,0.049958803,-0.033447266,-0.011180115,77.64417309,12.87874714,5.38
152179096658,-0.4530838,-1.0570877,10.24366,-0.007826233,-0.024163818,0.08019104,77.64417309,12.87874714,5.38
152179096679,-0.13770752,-0.41449586,10.341886,-0.004408264,0.025180053,0.10144806,77.64417309,12.87874714,5.38
152179096700,0.065560915,-1.2888321,9.70743,0.02515564,0.018092345,0.02852478,77.64417309,12.87874714,5.38
152179096721,0.28414458,-0.8502304,9.612314,0.025157165,-0.020256042,0.023149109,77.64421284,12.87871829,5.37
152179096742,-0.23126832,-0.82067716,9.978416,0.004020691,-0.02660675,0.062106322,77.64421284,12.87871829,5.37
152179096764,-0.40821534,-1.1867797,9.515406,-0.06303711,0.002581787,0.086912535,77.64421284,12.87871829,5.37
152179096785,-0.3110687,-0.86315,9.999113,0.00524292,0.042524718,0.12905732,77.64421284,12.87871829,5.37
152179096806,-0.18317108,-0.98673856,10.234805,0.02320404,0.10031281,0.09546051,77.64421284,12.87871829,5.37
152179096827,-0.036491394,-1.1049454,9.811636,-0.04447479,0.09799194,0.01813507,77.64425653,12.87870389,4.89
152179096849,0.2349701,-1.2078369,10.0876465,-0.0042816163,0.05669861,-0.056503296,77.64425653,12.87870389,4.89
152179096870,0.07668915,-1.5719055,9.878035,0.017707825,-0.021844482,-0.12052002,77.64425653,12.87870389,4.89
152179096891,-0.6675995,-1.0280167,9.730995,0.034565736,-0.032714844,-0.05418396,77.64425653,12.87870389,4.89
152179096912,-0.17503662,-0.94403076,10.057261,-0.010884094,0.014187622,0.060035706,77.64430081,12.87868975,4.35
152179096934,0.2797226,-0.71168363,10.377298,0.009771729,0.03067627,-0.018753052,77.64430081,12.87868975,4.35
152179096955,0.4472168,-0.6701706,10.235761,0.032006837,-0.059721373,-0.13786927,77.64430081,12.87868975,4.35
152179096976,-0.42664337,-1.0534989,9.320984,0.01746521,-0.02551117,-0.071531676,77.64430081,12.87868975,4.35
152179096997,0.05742798,-0.92033994,9.875043,-0.077459715,-0.044325255,-0.0065338137,77.64430081,12.87868975,4.35
152179097019,-0.11964264,-0.39595336,7.334108,-0.24958953,-0.10003509,0.034384154,77.64433106,12.87867297,3.71
152179097040,-0.9824921,0.20524597,13.238157,0.32179108,0.065007016,0.17181702,77.64433106,12.87867297,3.71
152179097061,-0.19011077,-0.4537384,8.493309,0.39143068,0.09212951,0.0654129,77.64433106,12.87867297,3.71
152179097083,0.1415329,-0.07411804,11.662485,-0.5186142,-0.023562621,-0.026211549,77.64433106,12.87867297,3.71
152179097104,-0.6236908,1.2379882,8.319351,0.07243957,0.098602295,0.059669495,77.64433106,12.87867297,3.71
152179097125,0.37746733,0.13501282,12.39696,-0.04532776,0.20342255,0.018991088,77.64436822,12.8786645,3.73
152179097146,1.23051,0.44739684,8.331316,0.08856659,0.013450623,-0.24330597,77.64436822,12.8786645,3.73
152179097167,0.29240417,-0.004248047,11.21335,0.03639984,-0.050068665,-0.32430726,77.64436822,12.8786645,3.73
152179097189,-0.53910524,0.62231445,9.848964,-0.0055038454,-0.25189057,-0.22180176,77.64436822,12.8786645,3.73
152179097210,-1.6003205,0.23539582,10.252034,0.03883972,-0.10076447,0.111586,77.64440387,12.87865285,4.14
152179097231,-0.443631,0.19770965,9.211635,-0.06878509,0.09921265,0.23778534,77.64440387,12.87865285,4.14
152179097252,0.6765671,0.15104827,9.747027,0.049838256,0.17984772,0.021310424,77.64440387,12.87865285,4.14
152179097274,0.7893921,-0.073158264,9.979611,0.039697267,-0.012565613,-0.2663971,77.64440387,12.87865285,4.14
152179097295,0.07944031,0.2806198,9.640549,0.04042969,-0.2517746,-0.27617034,77.64440387,12.87865285,4.14
152179097316,-0.90484774,0.44213408,9.90316,-0.028593445,-0.36087188,-0.033540346,77.64444686,12.87863385,4.61
152179097338,-1.4455032,0.29018706,10.09698,0.0117202755,-0.20437165,0.30828246,77.64444686,12.87863385,4.61
152179097359,-0.37567443,-0.36460418,9.671536,0.046783447,0.033366393,0.42300567,77.64444686,12.87863385,4.61
152179097380,-0.31453705,-0.03523407,9.688762,-0.026887512,0.15174714,0.31255952,77.64444686,12.87863385,4.61
152179097401,0.15983887,0.15296021,9.52043,0.050933838,0.2217514,0.20334014,77.64444686,12.87863385,4.61
152179097422,0.38500366,-0.018243408,10.096501,-0.05973663,0.14979096,0.012150574,77.64448165,12.87861077,4.65
152179097444,-0.49196625,0.339003,9.673808,-0.0029403686,0.07123413,0.0029922486,77.64448165,12.87861077,4.65
152179097465,-0.29085082,-0.07351837,10.152972,0.050082397,0.15601806,0.060643006,77.64448165,12.87861077,4.65
152179097486,0.24969025,-0.2943756,9.720825,-0.023583984,0.14234161,-0.06749878,77.64448165,12.87861077,4.65
152179097508,-0.07226715,-0.31399688,9.818334,0.043115236,0.117536925,-0.122479245,77.64448165,12.87861077,4.65
152179097529,0.42448577,0.06682129,10.456622,0.006829834,0.0052719116,-0.23439178,77.64453087,12.87859493,5.35
152179097550,0.025480652,-0.059762575,9.921585,0.080014035,-0.1478012,-0.24269715,77.64453087,12.87859493,5.35
152179097571,-0.31681365,-0.05593262,9.793691,-0.020652771,-0.2577591,-0.13506317,77.64453087,12.87859493,5.35
152179097593,-1.1255844,0.009390259,9.342282,0.013674927,-0.18836364,0.09815369,77.64453087,12.87859493,5.35
152179097614,-0.76307374,-0.47922057,10.0837,-0.011247253,-0.0025482178,0.17719117,77.64457831,12.87857621,5.8
152179097635,0.04498291,-0.04600067,9.996002,-0.027494812,0.09359131,0.11073303,77.64457831,12.87857621,5.8
152179097656,0.29766542,-0.43794402,9.573665,-0.028346252,0.03031311,-0.036468506,77.64457831,12.87857621,5.8
152179097678,-0.12502594,-0.2114685,9.079791,0.020759583,-0.03919525,-0.012277221,77.64457831,12.87857621,5.8
152179097699,-0.519722,-0.22271271,10.2814665,0.012940979,-0.025019836,0.04171448,77.64457831,12.87857621,5.8
152179097720,-0.45990142,-0.45924225,9.269063,0.014286804,0.07147827,0.112809755,77.64463077,12.87855756,5.9
152179097741,0.036369324,-0.062153626,9.706828,-0.009051514,0.14490357,0.047454834,77.64463077,12.87855756,5.9
152179097763,0.147995,-0.46103668,9.081228,0.049595643,0.063050844,-0.109284975,77.64463077,12.87855756,5.9
152179097784,0.24334717,-0.117666624,10.03333,0.00463562,-0.071324155,-0.14507294,77.64463077,12.87855756,5.9
152179097805,-0.39290315,-0.35192412,9.84238,0.013795471,-0.12751922,-0.057847597,77.64463077,12.87855756,5.9
152179097826,-0.4561966,-0.20619965,9.958079,-0.005259705,-0.045544434,0.07310486,77.64468683,12.87853911,6.12
152179097848,-0.12167511,-0.107377626,9.724417,-0.038362123,-0.007305908,0.036457825,77.64468683,12.87853911,6.12
152179097869,-0.060899355,-0.10498352,10.36318,0.01073761,-0.038949586,1.8005371E-4,77.64468683,12.87853911,6.12
152179097890,-0.30795747,-0.25046843,9.363101,0.02357025,-0.051167298,0.03340454,77.64468683,12.87853911,6.12
152179097911,-0.2000412,-0.23467866,10.221524,-0.015158081,-0.009385681,0.07469177,77.64473234,12.87851466,6.39
152179097933,-0.26225585,-0.50506437,9.688288,0.062054444,0.046435546,0.08006897,77.64473234,12.87851466,6.39
152179097954,0.058383178,-0.28217468,9.65024,-0.031039428,0.08565216,0.07554779,77.64473234,12.87851466,6.39
152179097975,0.36191255,-0.37956086,9.973989,0.013920593,0.07209015,-0.024494935,77.64473234,12.87851466,6.39
152179097996,0.2889328,-0.63164365,9.923979,-0.02236023,-0.02551422,-0.04978485,77.64473234,12.87851466,6.39
152179098018,-0.34181672,0.19866486,10.264836,0.024423217,-0.111759946,-0.029382324,77.64478401,12.8784982,6.08
152179098039,-0.65276337,-0.31997833,9.888682,0.016241455,-0.09734497,0.052586365,77.64478401,12.8784982,6.08
152179098061,-0.45200652,-0.08368683,9.752292,-0.0141799925,0.006375122,0.14640808,77.64478401,12.8784982,6.08
152179098081,-0.25208282,-0.21936035,9.91261,0.0037780763,0.08601685,0.106335446,77.64478401,12.8784982,6.08
152179098103,-0.25663298,-0.15104827,9.914166,-0.023098756,0.093106076,0.065164186,77.64478401,12.8784982,6.08
152179098124,-0.06855621,0.028535461,9.41263,-0.005993652,0.08015289,-0.006416321,77.64484756,12.87846925,6.36
152179098146,0.112701416,-0.28600007,9.704915,-0.0356781,0.0130905155,-0.04233246,77.64484756,12.87846925,6.36
152179098167,-0.17359924,-0.49357757,9.768923,0.07402649,-0.036872864,-0.054060362,77.64484756,12.87846925,6.36
152179098188,-0.43513793,-0.11336212,10.190059,-0.026643371,-0.050064087,0.02021637,77.64484756,12.87846925,6.36
152179098209,-0.07645416,-0.31902313,9.329962,-0.0041625975,-0.0016937256,0.040979005,77.64484756,12.87846925,6.36
152179098230,-0.2855835,-0.38398895,9.789858,0.012330627,0.027253723,0.034872435,77.64490812,12.8784519,6.44
152179098251,0.08075409,-0.038464356,10.07712,-0.027368164,0.02798462,-0.0067840577,77.64490812,12.8784519,6.44
152179098273,-0.051686097,-0.5009979,9.13339,0.015510559,-0.0023010254,-0.019120788,77.64490812,12.8784519,6.44
152179098294,-0.11653137,-0.6274597,9.395042,-0.0145431515,-0.05079956,-0.028405761,77.64490812,12.8784519,6.44
152179098316,-0.431427,-0.1402771,10.088844,-0.019796753,-0.057885744,0.013618469,77.64497756,12.87844096,6.72
152179098337,-0.4688751,-0.20153351,9.864995,0.021125793,-0.004006958,0.062239073,77.64497756,12.87844096,6.72
152179098358,-0.43346253,-0.06370697,9.864517,-0.03286743,0.043380737,0.066021726,77.64497756,12.87844096,6.72
152179098379,-0.3686142,0.09326019,10.456141,-0.0037963868,0.037882995,0.024742126,77.64497756,12.87844096,6.72
152179098401,-0.16678008,-0.30478668,9.614105,-0.030422974,0.018826295,-0.0050704954,77.64497756,12.87844096,6.72
152179098421,-0.3479187,-0.28803557,9.81355,-0.0046524047,0.0060012816,0.0060424805,77.64502599,12.8784242,6.49
152179098443,-0.26081848,-0.31603393,9.926013,0.0047561647,0.012963867,0.013008118,77.64502599,12.8784242,6.49
152179098464,-0.15888825,-0.51032865,8.845057,-0.019552613,0.044480897,0.021202087,77.64502599,12.8784242,6.49
152179098486,-0.19405976,0.06371002,9.877077,0.032489013,0.06903382,-0.0062942505,77.64502599,12.8784242,6.49
152179098507,0.11114655,-0.52145386,9.60334,0.010496521,0.010154724,-0.07995911,77.64502599,12.8784242,6.49
152179098528,-0.12071991,-0.8358704,10.215063,-0.02895813,-0.042733766,-0.055282593,77.64509392,12.87840596,6.64
152179098549,-0.30616456,-0.84664,10.102003,0.009277344,-0.04701233,-0.02620392,77.64509392,12.87840596,6.64
152179098570,-0.5474777,-0.378244,10.497656,-0.03543091,-0.01720276,0.012400818,77.64509392,12.87840596,6.64
152179098592,0.602034,-1.1701508,8.938017,0.0065856935,-0.0051101684,0.009346008,77.64509392,12.87840596,6.64
152179098613,-1.0015167,-0.81756747,10.956123,0.0136734005,0.00697937,4.2877198E-4,77.64515321,12.87838725,6.57
152179098634,0.119039916,-0.74267423,10.266032,0.003289795,0.008444214,-0.009466553,77.64515321,12.87838725,6.57
152179098656,-0.23054962,-0.760379,9.552612,0.00206604,-0.04188385,-0.047950745,77.64515321,12.87838725,6.57
152179098677,-0.19118652,-1.1343765,9.505351,0.026745606,-0.08451843,-0.019117737,77.64515321,12.87838725,6.57
152179098698,0.04833374,-0.5298294,10.729045,-0.009414673,-0.11261749,0.021562194,77.64515321,12.87838725,6.57
152179098719,-0.84969175,-1.5139954,9.344437,-0.026028443,-0.039559938,0.12918243,77.64521023,12.8783683,6.13
152179098741,0.12777558,-0.72221375,10.009163,-0.018087769,0.05974884,0.16387482,77.64521023,12.8783683,6.13
152179098762,-0.3048462,-1.0537399,10.717918,0.08037567,0.14673463,0.1168396,77.64521023,12.8783683,6.13
152179098783,0.1394989,-1.2174072,8.963857,-0.02761383,0.1615158,0.005555725,77.64521023,12.8783683,6.13
152179098804,0.58588254,-0.63284,9.585396,-0.014910889,0.04875336,-0.11307526,77.64521023,12.8783683,6.13
152179098826,-0.5950943,-1.3122818,10.959111,-0.039830018,-0.0027893067,-0.10085144,77.6452595,12.87835581,5.29
152179098847,-0.11162567,-0.65186155,8.988623,0.1093338,-0.039678954,-0.08399506,77.6452595,12.87835581,5.29
152179098868,0.19633026,-1.1355728,11.237157,-0.07636108,-0.044325255,-0.05125122,77.6452595,12.87835581,5.29
152179098889,-0.84993136,-0.66514283,9.652156,0.09027557,-0.052998353,-0.011302185,77.6452595,12.87835581,5.29
152179098910,-0.18006286,-1.1736176,9.942403,0.02198944,0.021636963,0.04525299,77.64530667,12.87833704,5.06
152179098932,0.03493347,-0.53054965,9.454508,-0.096264645,0.009298706,-0.013867187,77.64530667,12.87833704,5.06
152179098953,0.112701416,-1.0670182,9.801585,0.016488647,-0.023805236,-0.08961487,77.64530667,12.87833704,5.06
152179098974,-0.29623413,-1.0270584,9.096417,-0.06573029,-0.08122101,-0.015208435,77.64530667,12.87833704,5.06
152179098996,-0.43525544,-0.9428314,10.643498,0.055337526,-0.056173705,0.0071456907,77.64530667,12.87833704,5.06
152179099017,-0.67310333,-1.372583,10.129521,0.041656494,0.026768494,0.14078674,77.6453553,12.87832066,4.85
152179099038,-0.21212463,-0.38793486,9.638273,0.027485657,0.11289215,0.13027802,77.6453553,12.87832066,4.85
152179099059,0.7846085,-0.93792725,9.921229,0.014410401,0.06378631,-0.06823273,77.6453553,12.87832066,4.85
152179099081,-0.094638065,-0.23180541,9.924097,0.0024353028,-0.061674498,-0.15790558,77.6453553,12.87832066,4.85
152179099102,-0.48981324,-0.6217148,9.488243,-0.037509155,-0.053605653,-0.010690307,77.6453553,12.87832066,4.85
152179099123,-0.07035065,-0.87332,13.6150255,-0.1042099,-0.043717958,-0.009103393,77.64539354,12.87830698,4.63
152179099144,-0.30161744,-0.5379669,6.7679644,0.36100617,-0.038093567,0.019476319,77.64539354,12.87830698,4.63
152179099166,-0.24634247,0.6095123,11.099932,-0.27035826,-0.036871336,0.073962405,77.64539354,12.87830698,4.63
152179099187,-0.44746247,0.632843,10.0667095,0.05973511,0.10494995,0.17829284,77.64539354,12.87830698,4.63
152179099208,1.0004364,-1.0226349,10.706073,0.0019515991,0.18607178,0.06162567,77.64539354,12.87830698,4.63
152179099229,0.17335662,0.1034317,7.3983536,0.017095948,0.09664764,-0.111968994,77.64543468,12.8782944,4.38
152179099251,-0.33918458,0.03750763,12.143562,0.028089905,0.023353577,-0.19651031,77.64543468,12.8782944,4.38
152179099272,0.554776,-0.8523819,8.851395,-0.07635498,-0.13448486,-0.21899872,77.64543468,12.8782944,4.38
152179099293,-1.3459641,0.088711545,8.597757,0.07121887,-0.15720978,-0.06517792,77.64543468,12.8782944,4.38
152179099314,0.17216186,-0.6397812,10.417256,-0.057666015,-0.068395995,0.09472809,77.64548131,12.87829279,4.56
152179099336,-0.7093536,-0.011065674,9.462282,0.054354858,0.048760988,0.11122284,77.64548131,12.87829279,4.56
152179099357,0.8166672,-0.470726,10.096262,0.063885495,0.05938568,0.031210328,77.64548131,12.87829279,4.56
152179099378,-0.6233307,-0.08979187,9.271335,-0.08711243,0.009796143,-0.03353729,77.64548131,12.87829279,4.56
152179099399,0.17467347,0.7360916,10.0851345,-0.033111572,-0.0722992,-0.040864564,77.64548131,12.87829279,4.56
152179099421,-0.40127867,-0.6203995,9.610041,0.14182739,-0.04689331,-0.0059295655,77.64553063,12.8782798,4.88
152179099442,-0.54544526,-0.22929077,9.684814,-0.047035217,-9.567261E-4,0.07640533,77.64553063,12.8782798,4.88
152179099463,-0.76737976,-0.16372986,8.8767605,-0.089186095,0.109228514,0.10633697,77.64553063,12.8782798,4.88
152179099484,0.6015549,-0.18598023,10.651395,0.013185119,0.10837555,-0.03780823,77.64553063,12.8782798,4.88
152179099506,0.27744752,-0.8729614,8.2997265,0.045072936,-0.007069397,-0.15692139,77.64553063,12.8782798,4.88
152179099527,-0.8894119,-1.162973,11.72063,-0.10310364,-0.12471008,-0.121377565,77.64557628,12.87827,4.85
152179099548,-0.7763519,-0.5033905,8.925095,0.12863617,-0.064237975,0.013737488,77.64557628,12.87827,4.85
152179099569,-0.39840698,-0.4537384,9.64641,-0.08942413,-8.3770754E-4,0.07530518,77.64557628,12.87827,4.85
152179099591,-0.44997102,-0.7753342,9.454747,0.058265686,0.075021364,0.08605194,77.64557628,12.87827,4.85
152179099612,0.13722686,-1.0159317,11.681864,0.0756134,0.08308716,-0.034269713,77.64561166,12.87825143,4.85
152179099633,0.20398712,-0.7530823,9.701088,-0.02578125,-0.021847535,-0.14312287,77.64561166,12.87825143,4.85
152179099654,0.06998901,-0.8764313,9.226469,0.012579346,-0.14144592,-0.14031677,77.64561166,12.87825143,4.85
152179099676,-0.6557541,-1.0083954,9.988462,-0.10591583,-0.15036926,0.020091247,77.64561166,12.87825143,4.85
152179099697,-0.6495346,-0.604129,9.567449,0.064497374,-0.030522157,0.17511597,77.64561166,12.87825143,4.85
152179099718,-0.5913879,-1.2546173,10.821047,-0.0039169313,0.112286374,0.20578308,77.64565687,12.87823715,4.53
152179099739,0.004307556,-0.9933197,9.142479,0.018437196,0.174469,0.12588196,77.64565687,12.87823715,4.53
152179099761,0.81260073,-0.9324234,10.002823,-0.007699585,0.15638581,-0.09401093,77.64565687,12.87823715,4.53
152179099782,0.7341156,-0.39738768,9.808408,-0.005014038,-0.06362762,-0.3183197,77.64565687,12.87823715,4.53
152179099803,-0.82743835,-0.5199005,10.320353,0.06462097,-0.18530731,-0.18844756,77.64565687,12.87823715,4.53
152179099824,-0.65276337,-0.5596191,9.111734,-0.011613464,-0.13558349,0.0952179,77.64569053,12.8782165,3.17
152179099846,-0.45954132,-0.80452883,10.438196,0.006590271,-0.04212494,0.15752411,77.64569053,12.8782165,3.17
152179099867,-0.48933107,-0.8371857,9.615782,-0.025289917,-0.0070663453,0.16497345,77.64569053,12.8782165,3.17
152179099888,-0.5928238,-1.0039673,10.725334,0.012574768,0.06048126,0.18183441,77.64569053,12.8782165,3.17
152179099909,-0.02093811,-1.2888336,9.792132,-0.026763916,0.1287735,0.18648072,77.64569053,12.8782165,3.17
152179099931,0.3842865,-1.661876,9.399231,-0.08441772,0.10031128,0.013859558,77.64572562,12.87820348,3.41
152179099952,0.15601043,-1.4120636,8.812152,0.009153748,0.034590147,-0.16010436,77.64572562,12.87820348,3.41
152179099973,0.17168427,-1.5719025,10.949422,0.037623595,-0.065704346,-0.21850586,77.64572562,12.87820348,3.41
152179099994,-0.30568543,-1.5661621,9.9564,0.038719177,-0.112615965,-0.16205902,77.64572562,12.87820348,3.41
152179100016,-1.0182679,-1.5092118,9.727289,0.05594177,-0.060328674,0.101695254,77.64575714,12.87819713,3.0
152179100037,-0.46612397,-2.052864,10.592293,0.04434357,-0.0036453246,0.24781036,77.64575714,12.87819713,3.0
152179100058,-0.48191682,-1.3515259,9.229103,0.01355133,0.07306671,0.29105988,77.64575714,12.87819713,3.0
152179100079,0.16222993,-1.5319443,9.773946,0.06644897,0.06415405,0.22142334,77.64575714,12.87819713,3.0
152179100101,0.1040863,-1.3402817,10.1193495,-0.05192566,0.02407837,0.07371521,77.64575714,12.87819713,3.0
152179100122,-0.17312317,-2.0039291,9.935823,-0.09675598,0.029460143,0.034020998,77.64577789,12.87819171,2.12
152179100143,-0.030029297,-1.125644,9.314405,-0.008435058,0.019685363,-0.04172058,77.64577789,12.87819171,2.12
152179100164,0.12741852,-0.04456787,9.53586,0.021858215,0.017848205,-0.12540588,77.64577789,12.87819171,2.12
152179100186,-0.27996367,0.047319032,9.937378,0.050326537,-0.0016891479,-0.23035431,77.64577789,12.87819171,2.12
152179100207,-0.2206192,-0.25968474,10.251554,-0.011616516,-0.001687622,-0.21056518,77.64577789,12.87819171,2.12
152179100228,-0.16414794,-0.033439636,9.687088,-0.0062393188,0.048509218,-0.17464447,77.64578822,12.87818924,0.87
152179100249,-0.26824036,-0.057366945,10.380289,0.03321991,0.003440857,-0.25185698,77.64578822,12.87818924,0.87
152179100271,-0.31932372,-0.07507324,9.598315,-0.042146303,-0.014147949,-0.32980347,77.64578822,12.87818924,0.87
152179100292,-0.34839782,0.3525238,10.31975,0.03883972,-0.053488158,-0.34287566,77.64578822,12.87818924,0.87
152179100313,0.3461197,0.5251633,8.810957,0.050691225,-0.1579422,-0.35008088,77.6457928,12.87818665,0.8
152179100334,-1.4359375,0.8346756,9.905794,0.039208986,-0.10504303,-0.14093018,77.6457928,12.87818665,0.8
152179100356,-1.0975891,1.0030136,10.350619,0.009519959,-0.06765747,0.18696442,77.6457928,12.87818665,0.8
152179100377,-0.4290329,0.6744782,8.991615,-0.02468567,0.03275604,0.3504364,77.6457928,12.87818665,0.8
152179100398,-0.4756958,1.172905,11.131514,-0.010758972,0.0072250366,0.34774628,77.6457928,12.87818665,0.8
152179100419,0.14907226,0.9457062,8.598715,0.019293213,0.0060058595,0.22520752,77.64579639,12.87818356,0.86
152179100441,-1.2607803,0.6986435,11.142283,0.09515991,0.010401917,0.24230957,77.64579639,12.87818356,0.86
152179100462,0.3576065,0.32476503,8.884657,-0.0995636,0.09163666,0.31500396,77.64579639,12.87818356,0.86
152179100483,-0.08937378,0.89784545,9.733389,0.062783815,0.16151886,0.17767945,77.64579639,12.87818356,0.86
152179100504,0.5265366,0.45936432,10.696739,0.016847229,0.07233276,-0.08411713,77.64579639,12.87818356,0.86
152179100526,-0.12167664,0.29330292,9.55979,0.0315094,-0.020379638,-0.17598572,77.64580219,12.87818026,1.29
152179100547,-1.1313308,0.5274353,10.880987,0.03480377,-0.070957944,-0.077883914,77.64580219,12.87818026,1.29
152179100568,0.20997009,-0.922493,8.721464,-0.013200378,-0.08341827,0.0259552,77.64580219,12.87818026,1.29
152179100589,-1.0387253,-1.021553,9.022243,-0.135849,0.020414734,0.2369339,77.64580219,12.87818026,1.29
152179100611,-0.25411835,-0.86326903,10.109301,-0.16272736,0.13391113,0.23657379,77.64582091,12.87817617,2.55
152179100632,0.07453308,-0.7176682,10.498975,0.025280762,0.18265685,0.032673646,77.64582091,12.87817617,2.55
152179100653,1.0402771,-1.1208572,9.598673,0.0928421,0.042285156,-0.29595947,77.64582091,12.87817617,2.55
152179100675,-0.42580414,-1.113559,9.401506,0.028947448,-0.09539032,-0.36291045,77.64582091,12.87817617,2.55
152179100696,-0.74153596,-0.3911667,10.192095,-0.0135650635,-0.1553772,-0.17904663,77.64582091,12.87817617,2.55
152179100717,-0.8530426,-0.59934235,10.976822,-0.006478882,-0.13326111,-0.027186584,77.6458453,12.8781702,2.48
152179100738,-0.55764925,-1.1602188,9.222043,0.0091522215,-0.1023529,0.1261261,77.6458453,12.8781702,2.48
152179100760,-0.27170715,-1.7130845,7.4133086,-0.26669922,-0.024656678,0.2601471,77.6458453,12.8781702,2.48
152179100781,0.19644623,-1.6121032,12.376262,-0.017962646,0.0490036,0.20798035,77.6458453,12.8781702,2.48
152179100802,0.09822388,0.14709625,6.489558,0.3965622,0.06830444,0.12600556,77.6458453,12.8781702,2.48
152179100823,-0.5651825,-2.3191848,9.754446,0.20280151,0.14906006,0.18586883,77.64586952,12.87816313,2.35
152179100845,-0.075854495,2.8365128,8.403936,-0.32913208,-0.033210754,-0.010328675,77.64586952,12.87816313,2.35
152179100866,0.16354676,-0.0439682,8.05997,0.23504944,0.0068588257,-0.081668094,77.64586952,12.87816313,2.35
152179100887,-0.36849517,0.6544968,12.47341,-0.179216,-0.04994812,-0.06993866,77.64586952,12.87816313,2.35
152179100908,-0.29312286,1.8603607,10.270578,0.11226807,-0.06521759,-0.012887573,77.64586952,12.87816313,2.35
152179100930,-0.042834472,-0.4618744,11.764299,-0.016003419,0.07929687,0.10755768,77.6458944,12.87815793,2.48
152179100951,-0.70528716,0.4266983,7.705592,-0.087472536,0.06488647,0.105725095,77.6458944,12.87815793,2.48
152179100972,0.08637848,-0.113119505,11.011037,0.10481415,0.16017608,0.024002075,77.6458944,12.87815793,2.48
152179100993,0.53670657,0.3850647,8.433966,-0.050584413,0.012962341,-0.18563843,77.6458944,12.87815793,2.48
152179101015,-0.5324051,-0.08931275,9.935225,0.0072036744,-7.1563723E-4,-0.2214386,77.64592221,12.87815238,3.0
152179101036,-0.34205627,0.3985855,9.712334,-0.06951599,-0.17626496,-0.23267365,77.64592221,12.87815238,3.0
152179101057,-1.2312286,0.29365999,9.734346,0.10456848,-0.107485965,0.020945739,77.64592221,12.87815238,3.0
152179101078,-0.54078066,-0.079144284,9.843939,0.016973877,-0.028564453,0.15813294,77.64592221,12.87815238,3.0
152179101100,-0.5462845,0.17031097,9.589221,-0.014787292,0.039108276,0.10205994,77.64592221,12.87815238,3.0
152179101121,-0.59473723,-0.018600464,10.121267,-0.0047698976,0.08125611,0.07151642,77.64595612,12.8781445,3.65
152179101142,0.36861572,0.23539428,9.468023,-0.02394867,0.06891632,-0.018266296,77.64595612,12.8781445,3.65
152179101163,0.27744904,-0.2802597,9.457857,-0.026026916,0.015165711,-0.14483032,77.64595612,12.8781445,3.65
152179101185,-0.11270447,-0.18837586,11.198397,-0.011860657,-0.13497467,-0.13982697,77.64595612,12.8781445,3.65
152179101206,0.102053836,-1.1252838,8.647886,0.014529419,-0.17089692,-0.024377441,77.64595612,12.8781445,3.65
152179101227,-0.7578079,-0.66681826,7.664197,0.008787537,-0.07059021,0.19649658,77.64599511,12.87813374,4.14
152179101248,-0.08434753,-1.3454239,8.039629,-0.011978149,0.07795258,0.23754425,77.64599511,12.87813374,4.14
152179101270,-0.29922333,-0.95610964,7.2443757,-0.04875183,0.18595275,0.18660125,77.64599511,12.87813374,4.14
152179101291,-0.058267213,-0.103788756,11.343878,0.0976059,0.25388336,-0.020832825,77.64599511,12.87813374,4.14
152179101312,0.5544159,-2.182315,10.104155,0.050575256,0.1847351,-0.12761077,77.64603664,12.87812423,4.37
152179101333,0.3160904,-0.32931215,10.177259,0.018315125,-0.03235779,-0.39125365,77.64603664,12.87812423,4.37
152179101355,-0.90759885,-0.3441452,10.39369,0.1362091,-0.1705246,-0.29815978,77.64603664,12.87812423,4.37
152179101376,-0.57571566,-0.99511415,8.596077,-0.018452454,-0.1633133,-0.08631287,77.64603664,12.87812423,4.37
152179101397,-0.3361923,0.47240296,10.40697,-0.012347412,-0.090991214,0.00995636,77.64603664,12.87812423,4.37
152179101418,-0.1308899,0.6640686,11.793971,-0.0011062622,-0.0153717045,0.035726927,77.64607741,12.87811435,4.18
152179101440,0.33283845,0.23228303,11.039271,-0.03995056,-0.014515686,0.022172546,77.64607741,12.87811435,4.18
152179101461,0.6190201,-0.64217377,8.73056,0.007080078,-0.015983582,-0.006538391,77.64607741,12.87811435,4.18
152179101482,-0.38991088,-0.06239166,7.8411455,-0.033355713,-0.03857727,0.0034820556,77.64607741,12.87811435,4.18
152179101504,-0.7401001,0.4738373,11.665713,0.042016603,-0.032966614,-0.003237915,77.64607741,12.87811435,4.18
152179101525,0.02584076,-0.36436766,8.620247,-0.012341308,-0.042248536,0.02681427,77.6461166,12.87810216,4.29
152179101546,-0.4955551,0.33505708,10.717916,-0.017350769,-0.00987854,0.07811127,77.6461166,12.87810216,4.29
152179101567,-0.5094345,-0.05557251,9.217135,0.041531373,0.038137816,0.083732605,77.6461166,12.87810216,4.29
152179101589,0.5534561,-0.57780915,9.327806,-0.01259613,0.05730896,0.048062135,77.6461166,12.87810216,4.29
152179101610,-0.6736984,-0.3337372,10.91042,0.0023147583,0.05303345,0.0038467408,77.6461166,12.87810216,4.29
152179101631,0.26584166,-0.49573058,12.065434,0.011843872,-0.012567138,-0.085949704,77.64615835,12.87808898,4.55
152179101652,-0.53396,-0.5827118,11.466631,0.017462159,-0.06985779,-0.050517272,77.64615835,12.87808898,4.55
152179101673,-0.21631317,-0.73046875,9.379252,-0.04727783,-0.055929564,0.033044435,77.64615835,12.87808898,4.55
152179101695,-0.56195676,-0.1866974,9.778017,-0.045448303,-0.029785156,0.09264984,77.64615835,12.87808898,4.55
152179101716,-0.50667876,-0.88731843,10.773308,-0.016867066,0.03739319,0.0931427,77.64619931,12.87807639,4.24
152179101737,0.11461334,-0.37393647,9.250998,-0.022850037,0.051812746,0.06186676,77.64619931,12.87807639,4.24
152179101759,0.16581878,-0.35252228,9.842621,0.044215392,0.07661285,0.019117737,77.64619931,12.87807639,4.24
152179101780,0.13806458,-0.9597,10.512613,0.0063446043,0.06255951,-0.035488892,77.64619931,12.87807639,4.24
152179101801,0.16031647,-0.66634065,9.353409,-0.005014038,0.017237853,-0.09327698,77.64619931,12.87807639,4.24
152179101822,-0.28056183,-0.52193296,10.091952,-0.022122193,-0.02795105,-0.10964966,77.64623918,12.87806518,4.14
152179101844,-0.12155609,-0.62650144,10.159552,-0.012225342,-0.059106447,-0.08667908,77.64623918,12.87806518,4.14
152179101865,-0.21009064,-0.5611755,10.062759,0.091618344,-0.10467529,-0.060047913,77.64623918,12.87806518,4.14
152179101886,-0.47521514,-0.9970291,9.890718,0.058876038,-0.097343445,0.03487091,77.64623918,12.87806518,4.14
152179101907,-0.21571502,-0.42323,9.303279,-0.0659729,-0.07437591,0.12319336,77.64623918,12.87806518,4.14
152179101929,-0.32279053,-0.34953156,9.225273,0.00866394,-0.013294983,0.19283295,77.64627483,12.87805658,3.82
152179101950,-0.14380798,-0.16026,10.34978,0.07597961,0.0068572997,0.15947723,77.64627483,12.87805658,3.82
152179101971,-0.27421874,-0.123168945,10.466789,-0.018206786,-0.026240539,0.109629825,77.64627483,12.87805658,3.82
152179101992,-0.011607361,-0.34103698,10.403379,-0.045324706,-0.047013856,0.109509274,77.64627483,12.87805658,3.82
152179102014,-0.35186768,-1.1599808,9.14284,-0.08600922,-0.049697876,0.19368744,77.64630837,12.87804861,3.53
152179102035,-0.0918869,-0.34630126,9.705156,-0.02321167,-0.07376709,0.2388916,77.64630837,12.87804861,3.53
152179102056,-0.44219512,-0.47706908,9.088402,0.14647675,-0.01317749,0.29105988,77.64630837,12.87804861,3.53
152179102078,-0.10193634,-0.8604004,11.76095,-0.021018982,-0.012438965,0.34469453,77.64630837,12.87804861,3.53
152179102099,0.008372498,-0.55411685,9.385831,0.25325316,0.059994508,0.3200119,77.64630837,12.87804861,3.53
152179102120,0.16007844,-0.9271606,9.876958,0.10175934,0.07257996,0.26320344,77.64634016,12.87804838,3.33
152179102141,-0.08255462,-0.8696106,11.681627,-0.3751831,0.039959718,0.2189743,77.64634016,12.87804838,3.33
152179102163,-0.014356995,0.25824434,9.000348,0.18300629,0.07563324,0.22191009,77.64634016,12.87804838,3.33
152179102184,0.42975006,-0.8191223,11.424159,0.06560516,0.023472596,0.11403503,77.64634016,12.87804838,3.33
152179102205,-0.36263427,-0.41258088,8.734387,-0.15551606,-0.07852936,0.12893677,77.64634016,12.87804838,3.33
152179102226,-0.59832764,-0.13513489,10.127367,0.046905518,-0.07046966,0.26002654,77.64636834,12.87805374,2.93
152179102248,-0.48873442,-0.85872346,10.337459,0.036520384,-0.11359253,0.29130402,77.64636834,12.87805374,2.93
152179102269,-1.1370728,-0.70151365,9.841904,0.14964446,-0.050920106,0.4861679,77.64636834,12.87805374,2.93
152179102290,-0.28797913,-1.2742355,10.649122,0.06388855,0.05217743,0.60418546,77.64636834,12.87805374,2.93
152179102312,-0.094517514,-1.2241074,8.500728,-0.07964935,0.17080231,0.6404724,77.64639149,12.87806821,3.12
152179102332,1.2111251,-1.5423523,11.129362,-0.16334382,0.06708374,0.32673645,77.64639149,12.87806821,3.12
152179102354,-0.3165695,-0.53940123,8.144435,0.19363251,-0.0026733398,0.17731324,77.64639149,12.87806821,3.12
152179102375,-1.1338409,-1.062114,11.689041,0.20133361,0.16506043,0.46919098,77.64639149,12.87806821,3.12
152179102396,0.98655856,-1.3226929,10.072813,-0.10958252,0.12548065,0.36289367,77.64639149,12.87806821,3.12
152179102418,-0.28917235,-1.2814178,9.904836,0.06608429,0.119493105,0.048797607,77.64640749,12.8780896,2.8
152179102439,0.26823425,-2.3913283,9.8506365,-0.06059723,0.021517944,0.011294556,77.64640749,12.8780896,2.8
152179102460,-0.011247253,-1.5235687,9.258771,-0.012097168,0.028112793,-0.038301088,77.64640749,12.8780896,2.8
152179102481,0.50009763,-2.1916459,10.054268,-0.03213501,-0.057397462,-0.14861755,77.64640749,12.8780896,2.8
152179102502,0.041514587,-2.8719254,9.214269,-0.04898987,-0.12801056,-0.20494843,77.64640749,12.8780896,2.8
152179102524,-0.15697022,-2.5290313,10.061447,0.001335144,-0.08256378,-0.10646667,77.64641593,12.87810652,1.73
152179102545,0.24813385,-1.7081741,9.983557,-0.010147095,0.012110901,0.044155885,77.64641593,12.87810652,1.73
152179102566,0.012797547,-0.6375046,9.695345,0.0072021484,0.054006957,0.09032898,77.64641593,12.87810652,1.73
152179102588,0.28139648,-0.5842697,10.268186,-0.0024520874,0.014305115,0.089961246,77.64641593,12.87810652,1.73
152179102609,0.08853302,-0.6291321,9.69092,-0.010638428,-0.040657043,0.03902588,77.64641593,12.87810652,1.73
152179102630,0.52175295,-0.6655014,10.056181,0.005123901,-0.084272765,0.0014022827,77.64641865,12.87811381,0.62
152179102651,0.45906067,-0.49908295,9.694509,-0.0069747926,-0.028321838,0.0018920898,77.64641865,12.87811381,0.62
152179102672,0.6468979,-0.92620087,9.418971,-3.7384033E-4,0.056941222,0.0037277222,77.64641865,12.87811381,0.62
152179102694,0.23509522,-0.6676575,10.126532,-0.0033065795,0.05633087,0.0040908814,77.64641865,12.87811381,0.62
152179102715,-0.07166748,-0.43005067,9.891675,0.0012145996,0.009909058,-0.0014068603,77.64641081,12.87811153,0.0
152179102736,0.43920135,-0.8570496,9.581923,-0.0020858764,0.010153199,6.713867E-4,77.64641081,12.87811153,0.0
152179102758,-0.056233216,-0.41581267,10.13203,-0.0028182983,0.01186676,6.713867E-4,77.64641081,12.87811153,0.0
152179102779,0.3489929,-0.7380066,9.691035,-2.548218E-4,-0.010603333,-9.1552734E-4,77.64641081,12.87811153,0.0
152179102800,-0.030387878,-0.34438628,10.242701,-1.296997E-4,-0.009989929,-1.8310547E-4,77.64641081,12.87811153,0.0
152179102821,0.107077025,-0.8564514,9.422562,-7.446289E-4,-0.012561035,-0.0010375977,77.64640694,12.8781104,0.0
152179102843,0.4969879,-0.8322815,9.705513,-0.0013534545,-0.010479736,-0.012034607,77.64640694,12.8781104,0.0
152179102864,0.1081543,-0.3690338,9.896817,-3.7536622E-4,0.0072235106,-0.020217896,77.64640694,12.8781104,0.0
152179102885,0.3657425,-0.8496292,9.385714,-0.0041641234,0.034953307,-0.013258362,77.64640694,12.8781104,0.0
152179102906,0.13399811,-0.3589798,10.012752,0.0010879517,0.018704224,-0.0051940917,77.64640694,12.8781104,0.0
152179102928,-0.18987274,-0.64277345,9.68685,-0.0024490356,0.007952881,-0.018385315,77.64640543,12.87811066,0.0
152179102949,0.26117706,-0.8612366,9.437518,0.011349487,-0.03235016,-0.0034820556,77.64640543,12.87811066,0.0
