timestamp,accx,accy,accz,gyrx,gyry,gyrz,latitude,longitude,speed
152281848613,-0.6344589,-0.99248505,9.5972395,0.0048965453,-0.008546447,-1.4953614E-4,12.84512068,77.67269223,0.0
152281848633,-0.53264314,-0.57182467,9.78005,-0.003190613,-0.008442688,-0.0038391114,12.84512198,77.67269545,0.0
152281848654,-0.5258255,-0.5483734,9.850876,0.0013275146,-0.024443055,-0.004083252,12.84512198,77.67269545,0.0
152281848676,-0.42831573,-0.58641815,9.681943,0.015135193,-0.015649414,-4.196167E-4,12.84512198,77.67269545,0.0
152281848698,-0.42113954,-0.36963043,9.856623,0.0020614625,0.0062026978,0.0032424927,12.84512198,77.67269545,0.0
152281848718,-0.49268493,-0.7287933,9.887486,-0.0013595581,0.024531554,0.002268982,12.84512007,77.67269837,0.0
152281848739,-0.48454744,-0.28827515,9.813667,-0.0030685426,0.007672119,0.0010498047,12.84512007,77.67269837,0.0
152281848761,-0.2501709,-0.688234,9.85985,0.006343079,-0.003442383,-0.034988403,12.84512007,77.67269837,0.0
152281848782,-0.35079193,-0.47120667,9.793089,5.996704E-4,-0.028962707,-0.09436341,12.84512007,77.67269837,0.0
152281848803,-0.7398621,-0.6299698,9.852672,-0.0035568238,-0.037513733,-0.068711855,12.84512007,77.67269837,0.0
152281848824,-0.46193695,-0.54155576,9.819292,0.0034072876,-0.046069335,-0.0031021119,12.84511897,77.67269794,0.0
152281848846,-0.17563172,-0.7878952,9.8538685,2.2735595E-4,-0.059506226,-0.0022506714,12.84511897,77.67269794,0.0
152281848867,-0.39003295,-1.1370087,9.562065,-0.004660034,-0.05645294,-0.0023712157,12.84511897,77.67269794,0.0
152281848888,-0.046066284,-0.8425705,9.122981,0.00914917,-0.041308593,-0.0059127808,12.84511897,77.67269794,0.0
152281848909,0.058502197,-0.108695984,9.593531,0.0073196413,-0.046804808,0.0033721924,12.84511897,77.67269794,0.0
152281848931,0.26823425,-0.2182846,9.33283,0.016116332,-0.021884155,0.0061828615,12.84511894,77.67269833,0.0
152281848952,0.5583664,-0.2614746,9.705394,0.006828308,0.03113556,0.03646698,12.84511894,77.67269833,0.0
152281848973,0.16127472,-0.55758667,9.2096,0.013668823,0.055325318,0.0733612,12.84511894,77.67269833,0.0
152281848994,-0.23497467,0.46438903,9.910461,0.041888427,0.018554688,0.08704376,12.84511894,77.67269833,0.0
152281849016,0.087695315,0.6136993,9.194166,0.020147705,-5.0811766E-4,0.06505279,12.84511894,77.67269833,0.0
152281849037,-0.56470793,0.34857482,8.90667,0.034562685,0.03529358,0.12674561,12.84511807,77.67269783,0.0
152281849058,-0.24621888,0.3972702,9.246211,-0.0011093139,0.08439789,0.2011505,12.84511807,77.67269783,0.0
152281849079,0.51110685,0.5334198,9.202784,-0.022242736,0.103703305,0.05076599,12.84511807,77.67269783,0.0
152281849101,0.17371674,0.5898895,9.004175,-0.0035522461,0.050679017,-0.19442444,12.84511807,77.67269783,0.0
152281849122,-0.18675995,0.58450776,9.361305,-0.0013534545,-1.2207031E-5,-0.2820236,12.84513038,77.6726759,1.45
152281849143,-0.36753997,1.2375091,9.53622,0.031022644,-0.061468504,-0.30523378,12.84513038,77.6726759,1.45
152281849164,-0.59916383,1.0112655,9.807447,0.016604614,-0.094940186,-0.18085937,12.84513038,77.6726759,1.45
152281849186,-0.44159698,0.91651154,10.178213,-0.021879578,-0.06586151,-0.032426454,12.84513038,77.6726759,1.45
152281849207,-0.034217834,0.5005188,9.48884,0.016111756,-0.07869415,-0.019107055,12.84513038,77.6726759,1.45
152281849228,-0.07393952,0.8944977,10.031296,-0.009785461,-0.12767792,-0.01972046,12.84515557,77.67266123,3.06
152281849249,-0.3749588,0.7934006,9.845253,0.022094727,-0.15260163,0.05821686,12.84515557,77.67266123,3.06
152281849271,-0.6567093,0.63475496,10.234807,0.015991211,-0.08760681,0.20005187,12.84515557,77.67266123,3.06
152281849292,-0.28881532,0.6627563,9.713529,0.011470032,0.0013275146,0.24292907,12.84515557,77.67266123,3.06
152281849313,-0.39912263,0.80357057,9.94013,0.051052857,0.07083893,0.23498993,12.84515557,77.67266123,3.06
152281849334,0.29634857,0.51882476,9.54615,0.008416748,0.09624939,0.12687226,12.84518223,77.67264709,4.09
152281849356,0.009094238,0.64026034,9.528204,-0.029698182,-0.008204651,0.02596588,12.84518223,77.67264709,4.09
152281849377,-0.29993898,0.24257049,9.612791,0.004138184,-0.058773804,0.063101195,12.84518223,77.67264709,4.09
152281849398,-0.6016785,0.6324829,10.251795,0.012815857,-0.012968445,0.14043275,12.84518223,77.67264709,4.09
152281849419,-0.04079895,0.585704,10.347506,0.021366883,0.124349974,0.17329864,12.84520627,77.67262068,4.29
152281849441,-0.21607056,-0.17222138,9.743078,0.011590576,0.116040036,0.05161438,12.84520627,77.67262068,4.29
152281849462,-0.37316284,-0.22007903,9.484775,-0.0050186156,0.08231964,0.02242279,12.84520627,77.67262068,4.29
152281849483,-0.20566407,-0.22833404,10.196281,-0.018823242,0.033699036,-0.033891298,12.84520627,77.67262068,4.29
152281849504,-0.47485656,-0.49884337,9.946472,0.005116272,-0.037638854,-0.04012146,12.84520627,77.67262068,4.29
152281849526,-0.31453857,-0.838266,9.82683,-0.00599823,-0.081373595,-0.03437805,12.84525401,77.67257535,6.02
152281849547,-0.55860746,-0.95048827,9.65383,-0.025904845,-0.097010806,0.023280334,12.84525401,77.67257535,6.02
152281849568,-0.18987122,-0.9709488,9.567568,-0.0022094727,-0.064273074,0.06554107,12.84525401,77.67257535,6.02
152281849589,-0.20231323,-0.80141604,9.891078,-9.902954E-4,-0.021272277,0.116241455,12.84525401,77.67257535,6.02
152281849611,-0.377829,-0.96197355,10.076282,0.012327576,0.07315521,0.14055482,12.84525401,77.67257535,6.02
152281849632,-0.05157013,-0.6355942,9.851354,0.008296204,0.121902466,0.08691712,12.84529203,77.67253245,6.29
152281849653,0.14918976,-0.98362887,10.0305805,0.015136719,0.0642395,-0.022161866,12.84529203,77.67253245,6.29
152281849674,-0.21308288,-0.46235353,9.542201,0.012934876,-0.01015625,-0.033036806,12.84529203,77.67253245,6.29
152281849695,-0.17085114,-0.49955902,10.389262,0.0049942015,-0.054620363,-0.022523498,12.84529203,77.67253245,6.29
152281849717,-0.531926,-1.5346969,10.052475,-0.025415039,-0.068789676,0.019245911,12.84532201,77.67249764,5.69
152281849738,-0.7539795,-1.011026,9.678713,2.3193359E-4,0.0098754885,0.13456878,12.84532201,77.67249764,5.69
152281849759,-0.35294342,-1.4276199,9.942523,0.04042511,0.15036774,0.14055176,12.84532201,77.67249764,5.69
152281849781,0.09762573,-1.2510269,9.9199095,-0.016508484,0.16270599,-0.0021331788,12.84532201,77.67249764,5.69
152281849802,0.13339844,-1.2239883,9.664833,0.024665833,0.07889557,-0.13932495,12.84532201,77.67249764,5.69
152281849823,-0.28199616,-1.2159729,9.8233595,-0.0118637085,0.009992981,-0.1445755,12.84535948,77.67245001,5.39
152281849844,-0.27385864,-0.3119629,9.995401,0.0032836914,-0.0377594,-0.1307724,12.84535948,77.67245001,5.39
152281849866,0.001435852,-0.055693053,10.665393,-0.0013549805,-0.058532715,-0.091922,12.84535948,77.67245001,5.39
152281849887,-0.33200684,-0.28289336,9.247765,-0.008195495,-0.09542541,-0.09778442,12.84535948,77.67245001,5.39
152281849908,-0.32339326,-0.50326693,9.490041,-0.0011077881,-0.11387177,-0.042930603,12.84535948,77.67245001,5.39
152281849929,-0.34025726,-0.31674805,10.032373,-0.0022079467,-0.1143631,0.004100037,12.84538293,77.67240514,4.65
152281849951,-0.6187851,0.033441164,10.115285,0.044944763,-0.035687257,0.088386536,12.84538293,77.67240514,4.65
152281849972,-0.06628265,-0.24221496,10.008684,-0.030059814,0.026118468,0.09706116,12.84538293,77.67240514,4.65
152281849993,-0.36167756,-0.14972992,9.561823,-0.02346344,0.0040115356,0.046972655,12.84538293,77.67240514,4.65
152281850014,-0.5217575,0.019203186,10.120428,0.012200927,0.02917633,0.07568054,12.84538293,77.67240514,4.65
152281850035,-0.3207596,-0.23754731,9.847165,0.056915283,0.08427429,0.0695755,12.84541282,77.67237774,4.69
152281850057,-0.07011108,-0.5585434,9.854586,0.017332459,0.1255722,0.037205506,12.84541282,77.67237774,4.69
152281850078,0.0013122559,-0.18454742,10.003061,-0.025787354,0.09905396,-0.06919861,12.84541282,77.67237774,4.69
152281850099,-0.008137512,-0.5764877,9.540289,0.032969665,0.0032836914,-0.12991944,12.84541282,77.67237774,4.69
152281850120,-0.16785888,-0.31088716,10.107506,-0.046920776,-0.05571594,-0.10731659,12.84544074,77.67232036,5.71
152281850142,-0.15852508,-0.36460572,9.686012,0.04360199,-0.12718964,-0.100227356,12.84544074,77.67232036,5.71
152281850215,-0.58971405,-0.16240844,10.2014265,2.3040772E-4,-0.15101166,-0.021917725,12.84544074,77.67232036,5.71
152281850236,-0.33559418,-0.51092833,9.570555,-0.016868591,-0.12156677,0.05319824,12.84544074,77.67232036,5.71
152281850257,-0.4034317,-0.5227722,9.811275,0.013423157,-0.08663025,0.099990845,12.84544074,77.67232036,5.71
152281850279,-0.4954361,-0.3601776,10.245694,0.02099762,-2.6245118E-4,0.15753326,12.84547486,77.67227128,6.01
152281850300,-0.32721862,-0.3053848,9.977221,0.01904602,0.08915863,0.1651123,12.84547486,77.67227128,6.01
152281850321,-0.034458924,-0.25644836,10.043978,0.054718018,0.13753815,0.09791718,12.84547486,77.67227128,6.01
152281850314,-0.014598084,-0.5392822,9.9028,-0.00758667,0.1324112,0.005686951,12.84547486,77.67227128,6.01
152281850335,-0.07118835,-0.12676087,9.865236,-9.887696E-4,0.0517807,-0.059910584,12.84547486,77.67227128,6.01
152281850357,-0.11736908,-0.46043855,9.951614,0.020756532,-0.044602968,-0.093997195,12.845503,77.6722291,5.97
152281850378,-0.4053467,-0.13513795,9.8450165,-0.011985779,-0.108372495,-0.05001831,12.845503,77.6722291,5.97
152281850399,-0.34863433,-0.32308808,10.004618,0.021487426,-0.104344174,0.0188797,12.845503,77.6722291,5.97
152281850420,-0.77551425,-0.1925644,9.767845,0.017944336,-0.034220885,0.106471255,12.845503,77.6722291,5.97
152281850442,-0.13938293,-0.4410553,10.2052555,-0.03152771,0.063381955,0.12638244,12.84553279,77.67217936,6.26
152281850463,-0.1243103,-0.8380264,8.980367,0.0034088134,0.09221344,0.05027008,12.84553279,77.67217936,6.26
152281850485,-0.27409822,-0.04611969,9.039592,-0.10079193,0.0853775,0.007887268,12.84553279,77.67217936,6.26
152281850505,0.15864411,-0.093258664,11.198515,0.065841675,0.04396057,-0.044400025,12.84553279,77.67217936,6.26
152281850527,-0.14333192,-0.8924637,11.055662,0.05912018,0.023191834,-0.06113434,12.84553279,77.67217936,6.26
152281850548,-0.43645325,-0.50422823,9.035162,-0.11581726,0.017451476,-0.042929076,12.84557007,77.67213231,6.08
152281850569,-0.17503509,-0.30574036,9.5903,0.060583495,0.012687683,-0.03303375,12.84557007,77.67213231,6.08
152281850590,-0.29671326,-0.7079773,9.820848,0.026374817,0.035772704,-0.06223297,12.84557007,77.67213231,6.08
152281850612,-0.17862396,-0.6675354,9.558952,-0.045939635,-0.0031982423,-0.08569183,12.84557007,77.67213231,6.08
152281850633,-0.08147736,-0.89617,10.630579,0.11714935,-0.018463135,-0.08251648,12.84557007,77.67213231,6.08
152281850654,-0.162117,-0.66658175,9.993607,-0.041664124,-0.024809266,-0.05832367,12.84561027,77.67207191,6.54
152281850675,-0.52199554,-1.09944,9.063642,-0.084178165,-0.01162262,-0.03437958,12.84561027,77.67207191,6.54
152281850696,-0.23437652,-0.41820374,9.881864,0.053742982,0.0010803223,-0.047329713,12.84561027,77.67207191,6.54
152281850718,-0.68817747,-0.630809,10.123299,-0.014790344,-0.00466156,-0.05857086,12.84561027,77.67207191,6.54
152281850739,0.18161316,-0.6980484,9.549261,0.035295106,0.010243225,-0.04219971,12.84564552,77.67202356,6.4
152281850760,-0.87661135,0.056648254,10.610357,0.030039977,0.023190308,-0.05245819,12.84564552,77.67202356,6.4
152281850782,-0.15182495,-0.6571274,9.83544,-0.011250305,0.062161256,-0.04513092,12.84564552,77.67202356,6.4
152281850803,-0.40690002,-0.49728698,9.855306,-0.034829713,0.060696412,-0.079338074,12.84564552,77.67202356,6.4
152281850824,-0.13854523,-0.64157563,9.829341,0.037614442,0.015252685,-0.13309327,12.84564552,77.67202356,6.4
152281850845,-0.16199341,-0.75200194,9.734108,-0.02468872,-0.028605651,-0.12344055,12.84567833,77.67197855,6.12
152281850867,-0.68662107,-0.28827363,9.725731,0.020019531,-0.022612,-0.09033203,12.84567833,77.67197855,6.12
152281850888,-0.31047058,-0.5962311,10.62041,2.3345948E-4,-0.0068557737,-0.09167786,12.84567833,77.67197855,6.12
152281850909,-0.35749054,-0.8357544,9.827306,-0.009783936,-0.023469543,-0.09497223,12.84567833,77.67197855,6.12
152281850930,-0.29120788,-1.1164322,9.280428,-0.0034347535,-0.07185058,-0.11183319,12.84567833,77.67197855,6.12
152281851011,-0.7319641,-1.6858017,10.559154,-0.0077072144,-0.08821716,-0.06834106,12.84571928,77.67193336,6.36
152281851032,-0.10253296,-0.9805191,9.74954,0.0241745,-0.08675079,-0.031445313,12.84571928,77.67193336,6.36
152281851054,-0.107917786,-1.4594437,9.933909,-1.3580322E-4,-0.1062973,-0.025949096,12.84571928,77.67193336,6.36
152281851075,-0.40893707,-1.3092941,9.111975,0.004751587,-0.13061066,0.010331726,12.84571928,77.67193336,6.36
152281851096,-0.7073196,-0.21553192,9.8264675,-0.04092865,-0.10275421,0.113061525,12.84571928,77.67193336,6.36
152281851118,-0.3128647,-0.9279968,7.7052336,-0.15601654,0.024414063,0.20896912,12.84575874,77.67190663,5.94
152281851139,-0.36215362,0.7782074,10.548983,0.17433015,0.10883026,0.16217956,12.84575874,77.67190663,5.94
152281851160,-0.17659149,-0.70893097,10.837677,0.053620912,0.13021088,0.04624176,12.84575874,77.67190663,5.94
152281851181,-0.28175506,0.20751953,9.123461,-0.035438538,0.06485138,0.005937195,12.84575874,77.67190663,5.94
152281851202,-0.44386902,-0.43543243,10.203099,0.05178528,0.024659729,-0.028639222,12.8457956,77.6718679,5.95
152281851224,-0.27218476,-0.24077606,9.432373,-0.04508667,0.03480072,0.02413025,12.8457956,77.6718679,5.95
152281851245,-0.5133804,-0.07651062,9.764496,0.028086852,0.07266998,0.012290955,12.8457956,77.6718679,5.95
152281851266,-0.27505645,0.07100525,10.150337,-0.022483826,0.08744965,-0.02191925,12.8457956,77.6718679,5.95
152281851288,-0.1539795,0.0072387694,10.132513,0.0070724487,0.07498779,-0.06516876,12.8457956,77.6718679,5.95
152281851309,-0.37986296,-0.15200195,10.198794,0.03443451,0.020626832,-0.12112121,12.84584073,77.67182897,6.23
152281851330,-0.3175308,0.4566101,10.135025,0.037371825,-0.027870178,-0.11134796,12.84584073,77.67182897,6.23
152281851351,-0.49196625,-0.02362976,10.287687,-0.024075318,-0.052793883,-0.09314422,12.84584073,77.67182897,6.23
152281851373,-0.523671,-0.117666624,9.774785,0.010125732,-0.061947633,-0.055389404,12.84584073,77.67182897,6.23
152281851394,-0.32722014,-0.092660524,9.848004,-0.011495972,-0.029211426,-0.010925293,12.84584073,77.67182897,6.23
152281851415,-0.48706055,-0.067538455,9.759949,-0.037635803,0.011830139,-0.011660767,12.84588648,77.67179206,6.77
152281851436,-0.28235322,-0.12843475,9.648923,0.01061554,0.032473754,-0.028512573,12.84588648,77.67179206,6.77
152281851458,-0.35748902,-0.571582,9.628822,0.014039611,0.033695985,-0.047206115,12.84588648,77.67179206,6.77
152281851479,-0.05611267,-0.27870482,10.042302,0.013424682,-0.004292297,-0.07640381,12.84588648,77.67179206,6.77
152281851500,-0.37974244,-0.027217101,9.895502,0.0136703495,-0.058528136,-0.079582214,12.84593811,77.67175513,7.52
152281851521,-0.50979155,-0.42921144,9.81953,-0.010272217,-0.08663025,-0.049282838,12.84593811,77.67175513,7.52
152281851542,-0.5131424,-0.4006195,9.724177,-0.0050201416,-0.0602417,0.007524109,12.84593811,77.67175513,7.52
152281851564,-0.27948302,-0.20907135,9.489082,0.0029174804,-0.024568176,0.014852906,12.84593811,77.67175513,7.52
152281851585,-0.548793,-0.124127194,9.911654,-0.010643005,-0.007836914,0.010339355,12.84593811,77.67175513,7.52
152281851606,-0.30077973,-0.37561187,10.179294,0.019044494,-0.0012390136,-0.0045700073,12.84600373,77.67171832,7.83
152281851627,-0.25627136,-0.58809507,9.852793,-0.007711792,-0.025912475,-0.0039596558,12.84600373,77.67171832,7.83
152281851649,-0.17767029,-0.038822938,9.9179945,0.007559204,-0.038253784,0.018392945,12.84600373,77.67171832,7.83
152281851670,-0.5045288,-0.21577148,9.950777,-1.3580322E-4,0.008044434,0.036953736,12.84600373,77.67171832,7.83
152281851691,-0.47138673,-0.12843628,9.7649765,0.0041412353,0.058987428,0.046969604,12.84600373,77.67171832,7.83
152281851712,-0.51421964,-0.7770096,9.348864,0.0037704469,0.093681335,0.019979859,12.84605917,77.67167286,7.96
152281851734,-0.43896484,-0.21589203,10.021367,-0.021269226,0.080732726,-0.022898864,12.84605917,77.67167286,7.96
152281851755,-0.28881532,-0.45876312,10.532112,0.07047882,0.06277008,-0.051361084,12.84605917,77.67167286,7.96
152281851776,-0.26871642,-0.7225739,10.019933,-0.005265808,0.02368164,-0.07066345,12.84605917,77.67167286,7.96
152281851798,-0.4225723,-0.63056946,10.121626,0.035902403,-0.042158507,-0.08324738,12.84605917,77.67167286,7.96
152281851819,-0.5985626,0.017648315,10.441426,0.004507446,-0.0792984,-0.06162262,12.84612307,77.67161942,8.29
152281851840,-0.51421964,-0.37010956,9.946231,-0.03006134,-0.064152524,-0.008476257,12.84612307,77.67161942,8.29
152281851861,-0.48466796,-0.32332915,9.773465,-0.030549621,-0.0019729615,0.017295837,12.84612307,77.67161942,8.29
152281851883,-0.41180572,-0.36795503,10.298694,0.038467407,0.04689026,0.00825653,12.84612307,77.67161942,8.29
152281851903,-0.2658432,-0.84735566,9.574985,-0.04154358,0.04004822,-0.028393555,12.84619194,77.67156712,8.54
152281851925,-0.15984192,-0.8270157,9.362381,-0.023466492,0.0070648193,-0.04818573,12.84619194,77.67156712,8.54
152281851946,-0.38129577,-0.9271561,9.828743,0.020019531,-0.013450623,-0.048184205,12.84619194,77.67156712,8.54
152281851968,-0.3576065,-0.8514252,9.452354,-0.016259765,-0.025180053,-0.030592347,12.84619194,77.67156712,8.54
152281851989,-0.4699524,-0.7485336,9.943361,0.028698731,-0.026283264,-0.024848938,12.84619194,77.67156712,8.54
152281852010,-0.3483963,-0.5902481,9.798596,-0.025912475,-0.009422302,-0.021920776,12.84625962,77.67152094,8.69
152281852031,-0.33631286,-0.46582335,9.834009,-0.0017196655,-0.017848205,-0.015568542,12.84625962,77.67152094,8.69
152281852052,-0.6927231,-0.8678177,9.807449,0.029554749,-0.008573914,-0.015690614,12.84625962,77.67152094,8.69
152281852073,-0.30807647,-0.52264863,9.423159,-0.05974884,-0.0074752807,-0.0066482546,12.84625962,77.67152094,8.69
152281852095,-0.3318863,-1.0343583,9.504877,0.012449646,0.004624939,-0.0052978517,12.84625962,77.67152094,8.69
152281852116,-0.25268555,-0.41425782,10.170199,-0.018089294,0.017082214,-0.008850098,12.84632517,77.67147536,8.56
152281852137,-0.35617217,-0.7549942,9.923739,0.0013336182,-8.69751E-4,-0.020329285,12.84632517,77.67147536,8.56
152281852158,-0.2008789,-0.7241272,9.727051,0.022833252,-0.004779053,-0.024359131,12.84632517,77.67147536,8.56
152281852180,-0.13005066,-0.8894684,9.695343,9.6282957E-4,-0.027258301,-0.031933594,12.84632517,77.67147536,8.56
152281852201,-0.43166655,-0.8797806,9.7694,0.0032852173,-0.0410553,-0.013243103,12.84638844,77.67142705,8.59
152281852222,-0.35892487,-0.85908353,9.719991,-0.020414734,-0.0147949215,0.019978333,12.84638844,77.67142705,8.59
152281852243,-0.49232483,-0.6822525,9.669261,-0.028720092,0.010365295,0.026083374,12.84638844,77.67142705,8.59
152281852265,-0.38883668,-0.5907242,9.946711,0.0024307251,0.051779173,0.018759156,12.84638844,77.67142705,8.59
152281852286,-0.1573288,-0.77006835,10.118515,0.014654541,0.05544739,-0.016664123,12.84638844,77.67142705,8.59
152281852307,-0.49986267,-0.8647064,9.808642,0.016477967,0.033210754,-0.035598755,12.84644758,77.6713843,8.65
152281852328,-0.3481552,-0.75846404,10.123301,-0.0019668578,0.02380066,-0.039263915,12.84644758,77.6713843,8.65
152281852350,-0.27362213,-0.7784454,9.607765,-0.007218933,0.0058425902,-0.04977112,12.84644758,77.6713843,8.65
152281852371,-0.6077774,-0.8046463,9.915243,-0.0013610839,-0.029696655,-0.048916627,12.84644758,77.6713843,8.65
152281852392,-0.41324157,-1.3814331,9.59963,0.027719116,-0.067323305,-0.051359557,12.84644758,77.6713843,8.65
152281852413,-0.20064087,-1.5453446,9.749901,-0.01858368,-0.061705016,-0.028149415,12.84651215,77.67134093,8.66
152281852435,-0.62285155,-1.2422928,9.767967,-0.0052627563,-0.047042847,0.0012939454,12.84651215,77.67134093,8.66
152281852456,-0.22050019,-1.1974258,10.179052,1.05285646E-4,-0.031658936,0.01839447,12.84651215,77.67134093,8.66
152281852477,-0.035057068,-2.155513,10.112413,0.0025512695,-0.04484558,-0.005429077,12.84651215,77.67134093,8.66
152281852499,-0.08853607,-2.2549348,9.615306,-0.0036788941,-0.08235016,-0.0040802,12.84651215,77.67134093,8.66
152281852520,-0.26345062,-1.5807571,10.379454,-0.01662445,-0.09371491,0.025354004,12.84658169,77.67130158,8.39
152281852541,-0.60406953,-1.1665604,10.006412,0.008781433,-0.08956146,0.06505127,12.84658169,77.67130158,8.39
152281852562,-0.67717135,-1.0934585,9.442304,0.013426209,0.001449585,0.14140931,12.84658169,77.67130158,8.39
152281852583,-0.67477876,-1.4197204,9.965373,-0.0029449463,0.11884613,0.15154724,12.84658169,77.67130158,8.39
152281852605,-0.039006043,-1.343985,9.549025,-0.0030685426,0.19227906,0.09486084,12.84663901,77.67126273,7.5
152281852626,0.20195313,-1.4404175,9.6905575,-0.009906006,0.1741867,-0.012635803,12.84663901,77.67126273,7.5
152281852647,0.12095642,-1.1803176,9.77287,0.028817749,0.101011656,-0.09216156,12.84663901,77.67126273,7.5
152281852668,-0.14871673,-1.4827713,9.995642,0.0019409179,0.015007019,-0.123075865,12.84663901,77.67126273,7.5
152281852690,-0.23150787,-1.2768707,9.724177,0.013911438,-0.057429504,-0.10889892,12.84663901,77.67126273,7.5
152281852711,-0.36131746,-1.1983871,9.922182,-0.012232971,-0.102508545,-0.0765274,12.84669575,77.67122589,6.98
152281852732,-0.33631438,-0.94019777,9.901843,0.0023071289,-0.06402588,-0.002368164,12.84669575,77.67122589,6.98
152281852753,-0.42747957,-1.0239456,9.897656,0.03407135,-0.021754455,0.018029785,12.84669575,77.67122589,6.98
152281852775,-0.7460831,-1.1179855,9.57295,-0.029084777,0.012686158,0.019003296,12.84669575,77.67122589,6.98
152281852796,-0.37304077,-0.9588623,9.714726,-0.058279417,0.04273834,0.02364502,12.84669575,77.67122589,6.98
152281852817,-0.44327393,-0.77772677,9.843701,0.04323425,0.07083435,-0.0070129395,12.84674662,77.67119386,6.45
152281852838,0.31513366,-0.9937973,9.397081,-0.022250365,0.044444274,-0.065287784,12.84674662,77.67119386,6.45
152281852860,-0.3432541,-1.7319854,10.185396,0.060580444,0.008648681,-0.07335053,12.84674662,77.67119386,6.45
152281852881,-0.20363006,-1.3326232,9.7402115,0.018190002,-0.005517578,-0.072006226,12.84674662,77.67119386,6.45
152281852902,-0.3786667,-1.4528611,9.901006,-0.017964173,-0.016629029,-0.059179686,12.84679783,77.67115864,6.17
152281852923,-0.4514084,-1.5610168,10.1353855,0.07524566,-0.012228394,-0.052581787,12.84679783,77.67115864,6.17
152281852945,-0.29060975,-1.5709488,9.87361,-0.033604432,0.015734863,-0.04952698,12.84679783,77.67115864,6.17
152281852966,-0.22540435,-1.4391037,9.527008,-0.019187927,-0.007345581,-0.06614532,12.84679783,77.67115864,6.17
152281852987,-0.44542694,-1.7213364,9.952454,0.03504944,-0.014675903,-0.07017517,12.84679783,77.67115864,6.17
152281853008,-0.22767791,-1.3223312,9.810796,0.08831482,-0.028962707,-0.068955995,12.84684291,77.6711422,5.81
152281853030,-0.38381043,-1.931784,9.751574,-0.025172424,-0.03958893,-0.07200775,12.84684291,77.6711422,5.81
152281853051,-0.42508698,-1.4891129,9.21642,-0.08918457,-0.06537171,-0.043299865,12.84684291,77.6711422,5.81
152281853072,-0.437529,-1.4441268,10.142921,0.028942872,-0.08503876,-0.04122162,12.84684291,77.6711422,5.81
152281853093,-0.4687546,-1.5236877,9.55022,-0.050950624,-0.0818634,0.04660797,12.84684291,77.6711422,5.81
152281853115,-0.5203201,-1.4100311,9.653709,0.03712616,-0.043743897,0.09351959,12.84688745,77.6711199,5.33
152281853136,-0.51996154,-1.5884125,9.78304,-0.036169432,0.0032806396,0.12894745,12.84688745,77.6711199,5.33
152281853157,-0.37352142,-1.3953155,9.723699,-0.015644837,0.047869872,0.13505554,12.84688745,77.6711199,5.33
152281853104,-0.15517426,-1.1952728,9.865356,0.001576233,0.064726256,0.08557739,12.84688745,77.6711199,5.33
152281853124,-0.16079864,-1.3753357,9.802664,0.005725098,0.06863556,0.024867248,12.84688745,77.6711199,5.33
152281853145,-0.1524231,-1.4913864,9.825514,-0.006977844,0.037112426,-0.03828888,12.84692251,77.6711026,3.94
152281853166,-0.108876035,-1.3097702,9.738294,0.013424682,-0.016386414,-0.09033203,12.84692251,77.6711026,3.94
152281853188,-0.6224915,-1.4204391,9.611717,0.010855103,-0.041911315,-0.061013795,12.84692251,77.6711026,3.94
152281853209,-0.21104737,-1.2229111,9.854586,-0.0023391724,-0.042523194,0.0023925782,12.84692251,77.6711026,3.94
152281853230,-0.062216185,-1.2955307,9.707428,0.0014511108,-0.06414642,-0.0049362183,12.84695235,77.67107931,3.68
152281853251,-0.51290286,-1.5282348,9.854825,0.0085372925,-0.08772583,0.014849854,12.84695235,77.67107931,3.68
152281853272,-0.6020371,-1.1317444,9.726929,0.0076797483,-0.054011535,0.1532608,12.84695235,77.67107931,3.68
152281853294,-0.10947418,-1.3719848,9.918233,-0.009056091,-0.007835388,0.21739654,12.84695235,77.67107931,3.68
152281853316,-0.4198227,-1.5898514,9.393488,-0.010276794,-0.006251526,0.17781678,12.84695235,77.67107931,3.68
152281853336,-0.019624328,-1.734616,9.771916,-0.008319092,-0.014187622,0.16510773,12.84697624,77.67106732,3.53
152281853357,-0.25232545,-1.71344,9.57917,-0.0014770508,-0.024804687,0.18075256,12.84697624,77.67106732,3.53
152281853379,-0.2849838,-1.6446472,9.862002,0.025642395,-0.02017212,0.20310517,12.84697624,77.67106732,3.53
152281853401,-0.5008179,-1.7578262,9.914166,-7.4310304E-4,-0.0017318726,0.27079162,12.84697624,77.67106732,3.53
152281853421,-0.3796219,-2.0005784,9.638394,0.006706238,0.037117004,0.3301651,12.84697624,77.67106732,3.53
152281853442,-0.08710022,-2.071167,9.635404,0.0038986206,0.05214386,0.3065857,12.84700064,77.67105355,3.0
152281853464,-0.19334106,-1.9990234,9.647249,0.0069519044,0.03809967,0.22546539,12.84700064,77.67105355,3.0
152281853502,-0.33415833,-1.9847885,9.9235,0.013546753,0.020378113,0.1838028,12.84700064,77.67105355,3.0
152281853522,-0.13352051,-2.1390014,9.812352,-0.005265808,0.0025421144,0.1480072,12.84700064,77.67105355,3.0
152281853544,-0.11425781,-1.9628922,9.8024235,-0.0022125244,-0.029573059,0.095350645,12.8470192,77.67104185,2.19
152281853565,0.10264893,-2.0005798,9.758395,-0.012229919,-0.033850096,0.052835084,12.8470192,77.67104185,2.19
152281853586,0.18867187,-2.1580262,9.668185,0.004873657,0.021965027,0.027307129,12.8470192,77.67104185,2.19
152281853607,0.032304384,-1.7500503,9.954244,1.05285646E-4,0.06826782,0.0042251586,12.8470192,77.67104185,2.19
152281853628,-0.5091934,-1.0758728,9.829579,0.00438385,0.06631164,-0.017640686,12.8470192,77.67104185,2.19
152281853650,-0.3219574,-0.8900696,9.809479,0.01598816,0.016224671,-0.033280946,12.84703008,77.67102673,1.97
152281853671,-0.4905304,-0.8417343,9.819773,-0.0089324955,-0.017967224,-0.05368347,12.84703008,77.67102673,1.97
152281853692,-0.47988433,-0.81589204,9.72717,4.7607423E-4,-0.025053406,-0.009088134,12.84703008,77.67102673,1.97
152281853714,-0.19824982,-0.8795395,9.866669,-5.0354004E-4,-0.008200074,0.0019058228,12.84703008,77.67102673,1.97
152281853735,-0.39565277,-0.7220917,9.795843,1.05285646E-4,0.0019302368,-9.094238E-4,12.84703008,77.67102673,1.97
152281853756,-0.22205505,-0.9025116,9.748346,0.001576233,-0.00612793,-0.0018890381,12.84702026,77.67103737,0.34
152281853777,-0.18676147,-0.94235384,9.895024,-0.001600647,-0.0016067505,-0.0028671264,12.84702026,77.67103737,0.34
152281853798,0.01854248,-0.37262115,9.947428,0.0029159547,0.01158905,-0.0035949708,12.84702026,77.67103737,0.34
152281853820,-0.40379182,-0.756073,9.757677,2.3193359E-4,0.008650208,-0.0042007444,12.84702026,77.67103737,0.34
152281853841,-0.37244567,-0.81194305,10.047328,-0.0013580322,-6.3323975E-4,-0.007373047,12.84702278,77.67103661,0.25
152281853862,-0.31537324,-0.717189,9.806969,0.0016937256,-1.4190674E-4,-0.013000488,12.84702278,77.67103661,0.25
152281853884,-0.19190522,-0.65808564,9.570557,0.010371399,-0.022735596,-0.03853302,12.84702278,77.67103661,0.25
152281853905,-0.16618347,-0.12891082,10.056421,0.011961365,-0.012962341,-0.06529083,12.84702278,77.67103661,0.25
152281853926,-0.1494339,-0.16408844,9.995882,0.0026824952,0.0068206787,-0.09949646,12.84702278,77.67103661,0.25
152281853947,-0.20255585,-0.2539383,9.971832,0.0026794435,0.022091676,-0.12942657,12.84702606,77.67102228,0.45
152281853968,-0.2846283,-0.302034,10.041105,-2.548218E-4,0.05251007,-0.121485904,12.84702606,77.67102228,0.45
152281853990,-0.042114258,-0.35276183,9.928762,0.0034118653,0.03150177,-0.17646027,12.84702606,77.67102228,0.45
152281854011,-0.01184845,-0.16193238,9.942761,0.0039001466,0.022090148,-0.25380248,12.84702606,77.67102228,0.45
152281854032,-0.102890015,-0.28731996,9.900766,0.004144287,7.1563723E-4,-0.30108184,12.84702606,77.67102228,0.45
152281854053,-0.34492645,-0.42179567,9.755522,0.023077393,-0.0068588257,-0.26516265,12.84702339,77.67101754,0.82
152281854075,-0.008255005,-0.25345916,9.677516,0.004751587,-0.00917511,-0.20811157,12.84702339,77.67101754,0.82
152281854096,-0.31429902,-0.46199188,9.637796,0.021121215,-0.02518158,-0.21910247,12.84702339,77.67101754,0.82
152281854117,-0.7975311,-0.2860031,9.752653,0.009274292,-0.024082948,-0.11098175,12.84702339,77.67101754,0.82
152281854139,-0.3376297,-1.2159729,9.75289,-0.02249298,0.008528138,0.0036132813,12.84702339,77.67101754,0.82
152281854160,-0.14883423,-1.2677765,9.951616,-0.005267334,1.0681152E-4,-0.030471802,12.84703248,77.67101017,1.33
152281854181,-0.34085694,-1.5044281,9.709341,-3.829956E-4,-0.0012451172,-0.051850893,12.84703248,77.67101017,1.33
152281854202,-0.23222503,-1.078865,9.892393,4.7607423E-4,0.0038879395,-0.024116516,12.84703248,77.67101017,1.33
152281854224,-0.18257447,-0.6203995,9.901365,0.026496887,-0.013580322,-0.04952698,12.84703248,77.67101017,1.33
152281854245,-0.32554626,-0.58857423,9.74308,0.036024474,-0.01858368,-0.025582885,12.84704294,77.6710021,1.29
152281854266,-0.009333801,-0.13668823,9.598555,-0.008682251,-0.03275299,-0.03425598,12.84704294,77.6710021,1.29
152281854287,-0.10062103,-0.12436829,9.652034,0.020147705,-0.056822203,-0.071150206,12.84704294,77.6710021,1.29
152281854308,-0.21954194,-0.22594146,9.836281,-0.0013534545,-0.08968659,-0.021795655,12.84704294,77.6710021,1.29
152281854330,-0.54783785,-0.13752747,9.870618,0.0053649903,-0.098724365,0.08093567,12.84704294,77.6710021,1.29
152281854351,-0.7659439,0.056651305,10.168646,0.016604614,-0.05731354,0.26871032,12.84705361,77.67099483,1.45
152281854372,-0.2452652,-0.082969666,10.030101,0.02748108,0.017329406,0.36987457,12.84705361,77.67099483,1.45
152281854393,-0.24801788,-0.26351014,9.868108,0.021977235,0.05227051,0.3282135,12.84705361,77.67099483,1.45
152281854415,-0.55992126,-0.33302003,10.032847,-0.007827759,0.07328186,0.29095307,12.84705361,77.67099483,1.45
152281854436,-0.03338013,-0.75355834,9.699292,0.0060943603,0.11115112,0.23804931,12.84705361,77.67099483,1.45
152281854457,0.25291902,-1.4027313,9.987987,-0.028837586,0.11127625,0.04551239,12.84706407,77.67098489,1.75
152281854478,0.34767455,-1.3450638,9.659094,-0.0022140504,0.01573639,-0.16412354,12.84706407,77.67098489,1.75
152281854500,-0.43034974,-1.4986862,9.7901,0.014891053,-0.034458924,-0.18146972,12.84706407,77.67098489,1.75
152281854521,-0.36108094,-1.343869,9.790459,0.0036483766,-0.030062865,-0.09497528,12.84706407,77.67098489,1.75
152281854542,-0.3637131,-0.7018722,9.660289,0.038101196,-0.04912262,-0.09534149,12.84707315,77.67097211,1.68
152281854563,-0.38177642,-0.37633055,9.947786,0.022706604,-0.07331085,-0.06492462,12.84707315,77.67097211,1.68
152281854585,-0.73292387,-0.23587036,9.827311,0.0049972534,-0.07367706,0.05076599,12.84707315,77.67097211,1.68
152281854606,-0.36694032,-0.450029,10.180969,-0.013818359,-0.03092041,0.1660904,12.84707315,77.67097211,1.68
152281854627,-0.5867249,-0.2886322,9.857938,0.0013320923,-0.006732178,0.19614105,12.84707315,77.67097211,1.68
152281854648,-0.3113083,-0.4009735,9.857455,0.010003662,0.055812072,0.2761673,12.84708368,77.67095928,2.12
152281854670,-0.098228455,-0.39248046,9.760907,0.003163147,0.14230652,0.23756257,12.84708368,77.67095928,2.12
152281854691,0.5648239,-0.39093018,9.655385,0.0010894776,0.16161041,0.026579285,12.84708368,77.67095928,2.12
152281854712,0.35952148,-0.20272979,9.910101,0.009025574,0.05275879,-0.27554625,12.84708368,77.67095928,2.12
152281854733,-0.13854523,-0.12089691,10.168164,0.04653473,-0.07465668,-0.32844847,12.84708368,77.67095928,2.12
152281854755,-0.82145846,-0.3352936,9.405932,0.014649963,-0.0773407,-0.15728608,12.84709599,77.67094303,2.48
152281854776,-0.5666229,-0.43902436,10.482701,-0.043009948,3.4790038E-4,0.019732665,12.84709599,77.67094303,2.48
152281854797,-0.4223358,-0.31196442,9.296461,-0.014302063,0.051530458,0.031091308,12.84709599,77.67094303,2.48
152281854818,0.12957,-0.6871582,9.594366,0.041766357,0.03919525,-0.09644012,12.84709599,77.67094303,2.48
152281854840,-0.13615417,-0.34522247,10.305034,-0.06670685,-0.015162659,-0.16192627,12.84709599,77.67094303,2.48
152281854861,-0.2653656,-0.16588287,9.836881,0.022102356,-0.06634827,-0.15667267,12.84711028,77.67092447,2.59
152281854882,-0.56016237,-0.32009888,10.377658,0.037858583,-0.095666505,-0.061499022,12.84711028,77.67092447,2.59
152281854904,-0.60478514,-0.5070984,9.606448,0.022955323,-0.0496109,0.07873841,12.84711028,77.67092447,2.59
152281854925,-0.3414566,-0.46833342,9.560747,0.019778442,-0.0124786375,0.09351959,12.84711028,77.67092447,2.59
152281854946,-0.23234558,-0.09326019,9.941565,-0.0025772094,-0.027259827,0.056375124,12.84712611,77.67090702,2.65
152281854967,-0.32052,-0.468573,10.201068,0.019654846,-0.04607544,0.055644225,12.84712611,77.67090702,2.65
152281854988,-0.45188445,-0.59491426,9.725612,-0.0022094727,-0.021879578,0.12882844,12.84712611,77.67090702,2.65
152281855010,-0.60730135,-0.38602144,9.370399,-0.030555725,0.028565979,0.14043121,12.84712611,77.67090702,2.65
152281855031,-0.41539612,-0.15642853,10.547549,0.028453063,0.058372498,0.109890744,12.84712611,77.67090702,2.65
152281855052,-0.12335052,-0.8337204,9.464198,0.041157532,0.11090545,0.09571686,12.84714468,77.67088669,3.03
152281855074,-0.13424072,-0.1509262,10.236598,-0.030430604,0.14230652,0.019615173,12.84714468,77.67088669,3.03
152281855094,0.13663025,-0.9293121,9.304716,0.017214965,0.12263489,-0.103652954,12.84714468,77.67088669,3.03
152281855116,-0.08769989,-0.17497711,10.003421,-0.041545104,0.07462005,-0.21531525,12.84714468,77.67088669,3.03
152281855137,-0.026921082,-0.8803772,9.348864,-0.0011108399,-0.0049011232,-0.28141326,12.84714468,77.67088669,3.03
152281855158,-0.46109772,-0.21936187,10.647449,0.081106566,-0.06598206,-0.2338852,12.84716489,77.6708619,3.29
152281855179,-0.7456039,-0.49130553,9.904358,-0.064143375,-0.065618895,-0.1427414,12.84716489,77.6708619,3.29
152281855201,-0.4954361,-1.1091324,9.438357,-0.08099671,-0.025912475,-0.06919861,12.84716489,77.6708619,3.29
152281855222,-0.22397156,-1.2661011,9.732313,0.018800354,0.0031555176,-0.06333313,12.84716489,77.6708619,3.29
152281855243,-0.23007354,-1.5070572,9.586111,-0.011495972,-0.008816528,-0.12099914,12.84718896,77.67083922,3.29
152281855264,-0.39242402,-1.4205567,10.238394,0.0156234745,-0.04154663,-0.12735291,12.84718896,77.67083922,3.29
152281855286,-0.48454744,-1.4279754,9.414546,0.03419342,-0.038372803,-0.07066498,12.84718896,77.67083922,3.29
152281855307,-0.42699736,-1.3149124,10.468582,-0.03299866,0.0077926638,-0.016418457,12.84718896,77.67083922,3.29
152281855328,-0.24167939,-1.1940796,9.314885,0.044818114,0.026733398,-0.052462768,12.84718896,77.67083922,3.29
152281855349,-0.27529755,-1.0319641,10.128322,-0.0036743165,0.024658203,-0.076280214,12.84721463,77.67082061,3.23
152281855371,-0.17575225,-0.9139969,9.293828,-0.042401124,0.009265137,-0.11537628,12.84721463,77.67082061,3.23
152281855392,-0.19047089,-0.56153566,9.910698,-0.0019714355,-0.033605956,-0.12490845,12.84721463,77.67082061,3.23
152281855413,-0.52271426,-0.37585297,9.614466,-0.010517883,-0.053279113,-0.0812912,12.84721463,77.67082061,3.23
152281855434,-0.5371887,-0.9838684,9.991936,0.008047486,-0.04472656,-0.036698915,12.84721463,77.67082061,3.23
152281855456,-0.3911087,-1.2741196,10.101168,-0.005265808,-0.06414795,-0.031204224,12.84724172,77.67080302,3.44
152281855477,-0.47653198,-1.413379,9.758754,0.004138184,-0.08919525,-0.012026978,12.84724172,77.67080302,3.44
152281855498,-0.7590057,-1.2548554,9.91716,0.015013123,-0.050466917,0.114285275,12.84724172,77.67080302,3.44
152281855519,-0.3473236,-1.5595825,9.726568,0.0095153805,0.036505125,0.1684082,12.84724172,77.67080302,3.44
152281855541,-0.40869752,-1.1752945,10.2366,0.004508972,0.08121796,0.11465149,12.84727309,77.67078347,3.73
152281855562,-0.3631134,-1.3248444,9.734586,0.009147644,0.11249237,0.048928834,12.84727309,77.67078347,3.73
152281855584,-0.12694244,-1.5845871,9.966092,0.034317017,0.14096221,-0.018251037,12.84727309,77.67078347,3.73
152281855604,0.1661789,-1.3505661,9.794527,0.020385742,0.11824036,-0.16436768,12.84727309,77.67078347,3.73
152281855626,-0.09631195,-1.7013565,9.743919,-0.009790039,0.060939025,-0.27236938,12.84727309,77.67078347,3.73
152281855647,-0.18340912,-1.4341965,9.577495,0.026618958,0.02501831,-0.2947281,12.84730181,77.67076384,3.4
152281855668,0.1278946,-0.8430527,9.637438,0.046411134,-0.027256776,-0.345311,12.84730181,77.67076384,3.4
152281855689,-0.15912323,-0.9448654,9.909021,0.043600462,-0.08968353,-0.32955018,12.84730181,77.67076384,3.4
152281855711,-0.6782486,-0.6733993,9.318235,0.020878602,-0.12107849,-0.20261078,12.84730181,77.67076384,3.4
152281855732,-0.98058164,-0.72341,9.918356,-0.013934326,-0.048876952,-0.010679627,12.84730181,77.67076384,3.4
152281855753,-0.49878693,-0.38614196,9.589819,-0.01589508,0.024288941,0.04587555,12.8473244,77.67075377,2.49
152281855774,-0.25938264,-0.41856688,10.025792,0.053372193,0.06558075,-0.0134918215,12.8473244,77.67075377,2.49
152281855796,-0.23365784,-0.39200592,9.977577,0.009391785,0.07400818,-0.08947907,12.8473244,77.67075377,2.49
152281855817,-0.28199464,-0.5263611,10.078914,0.0071899416,0.05263214,-0.14958648,12.8473244,77.67075377,2.49
152281855839,-0.1753952,-0.60723877,10.078076,0.03162842,0.0059661865,-0.21189728,12.8473244,77.67075377,2.49
152281855859,0.0013137817,-0.9930832,9.421366,0.016967773,-0.053884886,-0.21873932,12.84734847,77.67074933,2.89
152281855880,-0.59377897,-0.14733735,10.021484,0.007559204,-0.10409851,-0.18550567,12.84734847,77.67074933,2.89
152281855902,-0.59258574,-0.9618515,9.496262,-0.025056457,-0.120227054,-0.085446164,12.84734847,77.67074933,2.89
152281855923,-0.67250365,-0.1335785,10.246411,-0.021511842,-0.09310303,0.029261779,12.84734847,77.67074933,2.89
152281855944,-0.6352951,-0.63236237,10.3481045,0.0053619384,-0.042166136,0.085580446,12.84737803,77.67074767,3.31
152281855965,-0.17073059,-0.89210355,9.01734,0.012445068,0.006086731,0.082646176,12.84737803,77.67074767,3.31
152281855987,-0.46707916,-1.4755951,9.986549,-0.02798462,0.0121887205,0.0478302,12.84737803,77.67074767,3.31
152281856009,-0.38404846,-1.501915,9.5629,-0.005996704,0.018424988,0.04330597,12.84737803,77.67074767,3.31
152281856029,-0.14046173,-1.4672196,9.804817,-0.019316101,0.026243592,0.040498354,12.84737803,77.67074767,3.31
152281856050,-0.20685883,-1.1141602,9.657776,1.0986328E-4,-0.0020935058,-0.02497406,12.84741515,77.67074654,4.16
152281856072,-0.379982,-0.6442062,9.768684,0.026983643,-0.022129823,-5.355835E-4,12.84741515,77.67074654,4.16
152281856093,-0.28438568,-0.67710876,10.188624,0.01721344,-0.023348998,0.0056945803,12.84741515,77.67074654,4.16
152281856114,-0.28366852,-0.57840425,9.541962,-0.002937317,-0.060972594,-0.014588928,12.84741515,77.67074654,4.16
152281856135,0.0062179565,-1.2702897,8.851156,0.004138184,-0.113139346,-0.005667114,12.84741515,77.67074654,4.16
152281856157,-0.5805008,-1.3743775,8.985153,0.009030151,-0.14197388,0.079711914,12.84745788,77.67074409,4.34
152281856178,-0.6475021,-0.078904726,9.782323,0.040304564,-0.10666351,0.18954162,12.84745788,77.67074409,4.34
152281856200,-0.22277221,-0.33553314,9.562543,0.048121642,-0.037031554,0.2188675,12.84745788,77.67074409,4.34
152281856220,-0.107917786,-0.40109712,9.708865,0.01733551,0.0019409179,0.21190491,12.84745788,77.67074409,4.34
152281856242,0.025361633,0.21864624,10.112291,0.029060364,0.0055984496,0.16449586,12.84750136,77.67073958,4.61
152281856263,-0.21021119,-0.4942978,9.828384,-0.027131652,-0.0013595581,0.14947204,12.84750136,77.67073958,4.61
152281856284,-0.4304703,0.04851532,9.559792,0.025396729,0.03211212,0.18807526,12.84750136,77.67073958,4.61
152281856305,0.02153778,-0.4728836,10.171277,0.060339354,0.07327728,0.16388854,12.84750136,77.67073958,4.61
152281856311,-0.20422669,0.12508392,9.734108,0.019291688,0.04188385,0.09229584,12.84750136,77.67073958,4.61
152281856332,-0.20458984,-0.3209366,9.383799,-0.01600952,0.014395142,0.07568207,12.84756634,77.67072405,5.12
152281856354,0.19752654,-0.10474701,9.654546,0.015255737,0.0306427,0.077999875,12.84756634,77.67072405,5.12
152281856375,0.32027894,0.3543167,9.587906,0.02014618,0.014886474,0.05296173,12.84756634,77.67072405,5.12
152281856396,-0.025846863,0.2082367,10.169838,0.011102295,-0.040815733,0.019612122,12.84756634,77.67072405,5.12
152281856418,-0.36012268,0.084048465,9.653948,-0.0075897216,-0.07502289,0.04636078,12.84756634,77.67072405,5.12
152281856438,-0.429274,0.23144531,9.918236,0.015255737,-0.07355499,0.0907074,12.8476202,77.67070071,6.15
152281856460,-0.37890473,0.22522584,10.100449,-0.0033126832,-0.025793457,0.12577057,12.8476202,77.67070071,6.15
152281856481,-0.425206,0.12388916,9.547946,0.0091522215,0.038461305,0.14421996,12.8476202,77.67070071,6.15
152281856502,-0.22636414,0.07364044,9.983559,0.008782959,0.11335449,0.1333435,12.8476202,77.67070071,6.15
152281856523,0.16773681,0.055093385,9.757795,-0.008444214,0.14425965,0.064079285,12.84769036,77.67065434,7.32
152281856545,0.27254027,0.03882446,10.224157,0.0019424439,0.052877806,-0.046229552,12.84769036,77.67065434,7.32
152281856566,-0.09990235,-0.21026611,9.705272,-0.012837219,-0.08247223,-0.04561615,12.84769036,77.67065434,7.32
152281856588,-0.49076995,-0.26362762,10.001386,-5.0354004E-4,-0.10189819,0.03757019,12.84769036,77.67065434,7.32
152281856608,-0.5188843,-0.39343873,9.8252735,-0.015525818,0.004872131,0.102436826,12.84769036,77.67065434,7.32
152281856630,-0.18580322,-0.54873353,9.87995,-0.0041671754,0.0853714,0.07922516,12.847762,77.67060968,8.02
152281856651,0.030387878,-0.96604,9.970998,0.010614013,0.0595932,0.00630188,12.847762,77.67060968,8.02
152281856672,-0.13435821,-0.49728698,9.758394,0.0034072876,-0.015777588,-0.012509155,12.847762,77.67060968,8.02
152281856693,-0.49674988,-0.8510666,9.911656,-0.014057922,-0.027133178,0.014239502,12.847762,77.67060968,8.02
152281856715,-0.25077057,-0.5624939,9.768324,-0.011618042,-0.0052719116,0.03487549,12.847762,77.67060968,8.02
152281856736,-0.30867308,-0.76552427,10.053909,-0.0017227173,0.004135132,0.02401123,12.84783153,77.6705609,8.4
152281856757,-0.17120667,-0.6678955,9.660288,-0.005509949,0.0063293455,0.027429199,12.84783153,77.6705609,8.4
152281856778,-0.1801773,-0.72783506,9.664235,5.9814454E-4,0.0114654545,0.019129943,12.84783153,77.6705609,8.4
152281856800,-0.20566407,-0.8419739,9.826711,-0.013572693,-3.845215E-4,0.009846496,12.84783153,77.6705609,8.4
152281856821,-0.17431793,-0.528273,9.852074,0.0387146,-0.021511842,0.006918335,12.84783153,77.6705609,8.4
152281856842,-0.39362335,-0.82438505,10.085611,-0.028596496,-0.03250885,0.0149734495,12.84789496,77.67050936,8.71
152281856863,-0.36993408,-0.63140565,9.448642,0.00683136,-0.02432556,0.03536377,12.84789496,77.67050936,8.71
152281856885,-0.097387694,-0.7388428,10.036558,-0.010758972,0.0018127442,0.04232941,12.84789496,77.67050936,8.71
152281856906,-0.15780792,-0.77724916,9.258057,-0.017723083,0.013171387,0.033044435,12.84789496,77.67050936,8.71
152281856927,-0.18532562,-0.6775864,10.199514,0.027105713,9.552002E-4,0.028526306,12.84795585,77.67045069,9.12
152281856948,-0.34540406,-0.437706,9.636002,-0.0292099,0.0038879395,0.033050537,12.84795585,77.67045069,9.12
152281856970,-0.36717987,-0.8020126,9.763301,-0.009176636,0.0070678713,0.035978697,12.84795585,77.67045069,9.12
152281856991,-0.25531465,-0.883609,9.4573765,0.009881591,0.01891632,0.032310486,12.84795585,77.67045069,9.12
152281857012,-0.40115815,-0.82594144,9.845972,-0.027006531,0.020507813,0.028773498,12.84795585,77.67045069,9.12
152281857033,-0.45918426,-1.0643876,9.949819,0.042869568,0.036624145,0.025357056,12.84801123,77.67038686,9.23
152281857055,-0.3365509,-1.5880585,9.940729,-0.028355408,0.08182983,0.027792359,12.84801123,77.67038686,9.23
152281857076,-0.17395782,-1.2958908,9.53945,0.023075867,0.105407715,0.006669617,12.84801123,77.67038686,9.23
152281857097,-0.12681885,-1.6339982,9.5164795,-0.080999754,0.123493955,-0.032669067,12.84801123,77.67038686,9.23
152281857118,-0.10600586,-1.1419128,9.6784725,0.03969116,0.06925049,-0.0858139,12.84801123,77.67038686,9.23
152281857140,-0.022853088,-0.86087644,10.312932,0.029795837,1.05285646E-4,-0.114277646,12.84807438,77.67033602,9.3
152281857161,-0.10624389,-0.7066574,9.662203,0.009391785,-0.08161926,-0.11122437,12.84807438,77.67033602,9.3
152281857182,-0.18831635,-0.9134003,9.900528,-0.006729126,-0.16420594,-0.09631805,12.84807438,77.67033602,9.3
152281857203,-0.39792937,-0.81194305,9.730759,-0.008805847,-0.223703,-0.043418884,12.84807438,77.67033602,9.3
152281857225,-0.56650084,-0.9608978,10.16673,0.041888427,-0.2145401,0.037202455,12.8481387,77.67028618,9.28
152281857246,-0.4820343,-0.986142,9.605255,-0.04985199,-0.13842773,0.10732422,12.8481387,77.67028618,9.28
152281857267,-0.5954529,-1.2644256,10.023519,0.03969116,-0.02505951,0.14226227,12.8481387,77.67028618,9.28
152281857288,-0.31860656,-1.4862411,9.834963,-0.010151672,0.06008301,0.1422638,12.8481387,77.67028618,9.28
152281857310,-0.36143646,-1.4422165,9.783758,0.015991211,0.11115265,0.13469085,12.8481387,77.67028618,9.28
152281857331,-0.25363922,-1.4065597,10.101886,0.010128784,0.16588593,0.09608307,12.84820349,77.67023173,9.2
152281857352,-0.18054047,-1.4309661,9.641146,-0.017477417,0.16832733,0.039888002,12.84820349,77.67023173,9.2
152281857373,-0.028715516,-1.75663,9.507027,0.008171082,0.13961944,-0.008843994,12.84820349,77.67023173,9.2
152281857395,-0.15697022,-1.2162125,10.183838,0.0058517456,0.07132568,-0.06455688,12.84820349,77.67023173,9.2
152281857416,-0.14022216,-1.4876785,10.119473,0.016844178,-0.021272277,-0.10145416,12.84820349,77.67023173,9.2
152281857437,-0.47641295,-1.3716263,9.546629,-0.012109375,-0.083573915,-0.06382141,12.84826217,77.67016945,8.98
152281857458,-0.5846878,-1.2578461,9.947665,0.011958313,-0.05767212,-0.002128601,12.84826217,77.67016945,8.98
152281857480,-0.5860031,-1.4272598,9.6905575,-0.019068908,0.0045028687,0.0097290035,12.84826217,77.67016945,8.98
152281857501,-0.5434097,-0.8874359,10.0450535,0.008171082,0.019651795,-0.008964539,12.84826217,77.67016945,8.98
152281857522,-0.5534622,-1.5186615,9.568524,-0.012960816,0.010240173,-0.030223083,12.84826217,77.67016945,8.98
152281857543,-0.22899628,-0.91052705,9.590538,-5.0354004E-4,-0.012966919,-0.031936646,12.84832945,77.67010639,9.07
152281857565,-0.22420807,-1.155194,9.86009,0.004876709,-0.04570465,-0.039875794,12.84832945,77.67010639,9.07
152281857586,-0.2865402,-1.4344361,9.7649765,-0.0019668578,-0.06292572,-0.0079925535,12.84832945,77.67010639,9.07
152281857607,-0.5300125,-1.5192627,10.337936,0.010983276,-0.025430297,0.021080017,12.84832945,77.67010639,9.07
152281857628,-0.30951387,-0.7957932,9.3431225,0.006828308,0.019889832,0.041107178,12.84838528,77.67005771,8.54
152281857650,-0.24167633,-1.7487366,9.8780365,-0.027989198,0.04005127,0.017907714,12.84838528,77.67005771,8.54
152281857671,-0.5808609,-0.99176484,9.782204,0.02111969,0.04017029,0.00398407,12.84838528,77.67005771,8.54
152281857692,-0.32841492,-1.1372483,10.176538,-0.026519775,0.032354735,-0.019229125,12.84838528,77.67005771,8.54
152281857713,-0.20925446,-1.465065,10.202024,0.012567138,0.027467346,-0.027172852,12.84838528,77.67005771,8.54
152281857735,-0.34313202,-1.946141,10.189104,-0.0199234,2.2735595E-4,-0.046595763,12.84845481,77.66998441,8.72
152281857756,-0.2677582,-1.7062638,10.186592,0.016357422,-0.01027832,-0.03303375,12.84845481,77.66998441,8.72
152281857777,-0.4718689,-1.0491912,10.374067,-0.0050216676,-0.0092956545,-0.030957032,12.84845481,77.66998441,8.72
152281857798,-0.70899504,-1.2381089,9.973749,0.007925415,0.014639283,-0.014590454,12.84845481,77.66998441,8.72
152281857819,-0.47796783,-1.224707,9.779808,0.004873657,0.04664612,-0.02106018,12.84845481,77.66998441,8.72
152281857841,0.27684936,-1.5118424,9.182442,-0.0061187744,0.04041748,-0.041711427,12.84852024,77.66992645,7.96
152281857862,-0.49184877,-1.0095932,10.3723955,0.014768982,0.019888306,-0.06480102,12.84852024,77.66992645,7.96
152281857883,-0.39170685,-0.7363327,10.136461,-0.00844574,0.013171387,-0.05856781,12.84852024,77.66992645,7.96
152281857905,0.19261932,-1.5863785,9.877077,0.028816223,-0.04606781,-0.10695038,12.84852024,77.66992645,7.96
152281857926,-0.6260849,-1.0721633,9.773111,-0.008073425,-0.13244171,-0.094487,12.848556,77.66989125,7.64
152281857947,-0.73938596,-1.1214554,10.101286,-0.01784668,-0.12401123,0.004217529,12.848556,77.66989125,7.64
152281857968,-0.6348175,-1.4639877,10.002103,0.036512755,-0.07050476,0.032067873,12.848556,77.66989125,7.64
152281857990,-0.07764892,-1.3613373,9.218813,-0.03275299,-0.040449522,0.051861573,12.848556,77.66989125,7.64
152281858011,-0.44386902,-1.325444,10.112651,0.010491943,0.0018157959,0.07152863,12.848556,77.66989125,7.64
152281858032,0.029071044,-1.3669571,9.597239,0.004507446,0.032717895,0.05173645,12.84862015,77.66984708,7.88
152281858053,-0.54449004,-1.0478776,9.921468,-0.012472535,0.03540802,0.043554686,12.84862015,77.66984708,7.88
152281858074,-0.3562912,-1.5551544,9.834604,0.004019165,0.04799347,0.030970763,12.84862015,77.66984708,7.88
152281858096,-0.10157776,-1.1852233,9.671293,-0.021270752,0.062408447,0.021200562,12.84862015,77.66984708,7.88
152281858117,0.045581054,-1.3633697,9.736261,0.03480072,0.06436157,-0.012998963,12.84862015,77.66984708,7.88
152281858138,-0.19956207,-1.1334213,9.8106785,-0.0056350706,0.05214691,-0.03034668,12.84867088,77.66981527,7.32
152281858160,-0.56434935,-1.1483734,9.628345,-0.01846161,0.03222809,-0.04623108,12.84867088,77.66981527,7.32
152281858181,-0.003111267,-1.4060822,10.159192,0.005970764,0.00816803,-0.07103119,12.84867088,77.66981527,7.32
152281858202,-0.299823,-1.2568909,9.90579,-0.004777527,-0.024449158,-0.07115326,12.84867088,77.66981527,7.32
152281858223,-0.14955597,-1.460756,10.027107,0.010858154,-0.06903534,-0.081292726,12.84872271,77.6697791,7.09
152281858244,-0.23413697,-1.1791229,9.476641,0.01757965,-0.09298096,-0.039753724,12.84872271,77.6697791,7.09
152281858266,-0.42209625,-0.8901917,9.739134,-0.0047714235,-0.07722473,0.012168884,12.84872271,77.6697791,7.09
152281858287,-0.3059265,-0.80321044,9.873012,0.018554688,-0.051072694,0.040621947,12.84872271,77.6697791,7.09
152281858308,-0.40283355,-0.6554535,9.758634,-0.003314209,-0.019682312,0.058210753,12.84872271,77.6697791,7.09
152281858329,-0.6650879,-0.4043274,9.865953,-0.022485351,0.04652252,0.08215485,12.8487703,77.66974169,7.07
152281858351,-0.16091613,-0.8989258,9.591977,0.0051147463,0.13815156,0.06835327,12.8487703,77.66974169,7.07
152281858372,-0.060540773,-0.7334595,9.69295,-0.013938904,0.14768067,-0.023750305,12.8487703,77.66974169,7.07
152281858393,0.1499115,-0.65987855,10.034645,0.030770874,0.030523682,-0.13321686,12.8487703,77.66974169,7.07
152281858415,-0.32195434,-1.0030091,9.83963,-0.00758667,-0.08809509,-0.11367035,12.8487703,77.66974169,7.07
152281858436,-0.53874665,-0.89437866,9.887967,0.01928711,-0.09396057,-0.018502807,12.848823,77.66971752,7.11
152281858457,-0.51170504,-1.5035903,9.354367,-0.03580017,-0.02689209,0.031829834,12.848823,77.66971752,7.11
152281858478,-0.3443268,-0.76408994,9.887609,-0.021755982,0.025143433,0.012527466,12.848823,77.66971752,7.11
152281858500,-0.28654176,-0.87057036,10.166847,0.015260315,-9.933471E-4,-0.03352356,12.848823,77.66971752,7.11
152281858521,-0.06652222,-1.7506485,8.892672,-0.017849732,-0.032502748,-0.020941162,12.848823,77.66971752,7.11
152281858542,-0.5206787,-1.7660797,10.361265,0.025393676,-0.026034545,0.00630188,12.84887565,77.66967852,7.51
152281858563,-0.14871521,-1.7882172,9.465754,-0.009542847,-0.009422302,0.0056930543,12.84887565,77.66967852,7.51
152281858585,-0.2511261,-1.559941,9.974106,-0.018339539,-0.006982422,0.007038879,12.84887565,77.66967852,7.51
152281858606,-0.44518432,-1.8894348,10.130002,-0.0023376464,-3.845215E-4,0.016929626,12.84887565,77.66967852,7.51
152281858627,-0.40833434,-1.9305893,9.764017,0.00854187,0.011708069,0.01448822,12.84892237,77.66964199,7.24
152281858648,-0.46277314,-1.7084153,9.643898,-0.0016052246,0.026853943,0.010212707,12.84892237,77.66964199,7.24
152281858669,-0.20219421,-1.5126832,9.833288,0.016967773,0.024043273,-0.011657715,12.84892237,77.66964199,7.24
152281858691,-0.055155944,-1.6018158,9.875763,-0.014181519,-0.013336182,-0.04244385,12.84892237,77.66964199,7.24
152281858712,-0.56757814,-1.535173,9.638875,-0.0041671754,-0.047532655,-0.02619629,12.84892237,77.66964199,7.24
152281858733,-0.45308074,-1.7697906,9.558357,0.0023101806,-0.059872437,4.3792726E-4,12.84896781,77.66961149,6.77
152281858755,-0.22265168,-1.6198791,9.358316,-0.008444214,-0.04741211,0.04111023,12.84896781,77.66961149,6.77
152281858776,-0.24945526,-1.6241882,10.008684,-0.008927917,0.0032806396,0.06273346,12.84896781,77.66961149,6.77
152281858797,-0.2736206,-1.8777069,9.051912,-0.0160141,0.048114013,0.07164917,12.84896781,77.66961149,6.77
152281858818,-0.44147643,-1.2717254,9.917516,-0.04130249,0.086351015,0.04721222,12.84896781,77.66961149,6.77
152281858840,-0.09009399,-1.584108,9.945635,0.07670899,0.09551392,0.004714966,12.84900945,77.6695806,6.37
152281858860,-0.23605499,-1.4400604,9.891673,-0.011985779,0.0900177,-0.051971436,12.84900945,77.6695806,6.37
152281858882,0.0021530152,-1.3138382,9.749182,-0.0036758422,0.04029236,-0.09925385,12.84900945,77.6695806,6.37
152281858904,-0.16008301,-1.1237274,9.928166,0.020391846,-0.03983307,-0.13272858,12.84900945,77.6695806,6.37
152281858925,-0.521756,-0.88181305,10.3881855,0.0043807984,-0.07184295,-0.07872925,12.84905272,77.66954784,6.31
152281858946,-0.4963913,-0.8673401,9.740331,-1.373291E-5,-0.04960785,-0.025219727,12.84905272,77.66954784,6.31
152281858967,-0.18054047,-1.7859421,9.2719345,-0.010520935,-0.027989198,-0.020576477,12.84905272,77.66954784,6.31
152281858988,-0.6135208,-0.75296324,10.347148,-0.0068542482,-0.017242432,-0.0026168823,12.84905272,77.66954784,6.31
152281859010,-0.52402955,-0.74937284,9.894545,-0.0074661253,0.0033996582,0.003985596,12.84905272,77.66954784,6.31
152281859030,-0.5617142,-1.3912445,10.092674,0.0095153805,0.024412537,-5.355835E-4,12.8491008,77.66951582,6.3
152281859052,-0.449852,-1.3384842,10.270579,0.003404236,0.01439209,-0.036334228,12.8491008,77.66951582,6.3
152281859073,-0.5785843,-1.4889923,10.002342,-1.373291E-5,-0.016996766,-0.040490724,12.8491008,77.66951582,6.3
152281859094,-0.6117264,-1.4705689,10.42599,0.009024048,-0.04154663,-0.029370118,12.8491008,77.66951582,6.3
152281859115,-0.4304703,-1.2439682,9.216182,-0.023468018,-0.034457397,0.007284546,12.8491008,77.66951582,6.3
152281859137,-0.5217575,-1.1867813,10.054504,-0.009051514,-0.012353515,0.025354004,12.84915384,77.66947515,6.42
152281859158,-0.29371947,-1.4828904,10.117557,0.015748596,0.009385681,0.025355529,12.84915384,77.66947515,6.42
152281859180,-0.4669586,-1.2961318,9.940489,-0.010031128,0.015979003,0.010211182,12.84915384,77.66947515,6.42
152281859200,-0.22145995,-1.3901703,9.993253,0.02099762,0.008404541,-0.005303955,12.84915384,77.66947515,6.42
152281859222,-0.05443878,-0.99092865,9.923619,-0.009173584,-0.0019729615,-0.009703064,12.84915384,77.66947515,6.42
152281859243,-0.36323395,-1.8346374,9.514445,-0.008929444,-0.015524292,-0.007868958,12.84920762,77.66944197,6.41
152281859265,-0.24096222,-2.135652,9.502243,-0.019308472,-0.016020203,0.023034668,12.84920762,77.66944197,6.41
152281859285,-0.5973694,-2.3069808,9.853388,0.0046279905,0.014147949,0.04575348,12.84920762,77.66944197,6.41
152281859307,-0.37770844,-2.9178681,9.7814865,0.0078063966,0.03173981,0.019857788,12.84920762,77.66944197,6.41
152281859328,-0.09045105,-2.9490921,9.651075,-0.0053848266,0.045788575,-0.0020065308,12.84924891,77.66940615,5.9
152281859350,-0.03816681,-2.9921646,9.619014,0.011831665,0.0043807984,-0.056248475,12.84924891,77.66940615,5.9
152281859370,-0.42747957,-2.1836305,9.379132,-4.989624E-4,-0.038494874,-0.06492462,12.84924891,77.66940615,5.9
152281859392,-0.50488585,-0.86087495,10.871658,-0.022488404,-0.03727112,-0.0010299683,12.84924891,77.66940615,5.9
152281859413,-0.74883574,-0.6238678,8.782003,0.39863282,-0.003315735,0.021324158,12.84924891,77.66940615,5.9
152281859434,-0.6071793,-3.1710281,8.215024,-0.55271304,0.048606873,0.07971497,12.84928835,77.66938347,4.86
152281859455,-0.18472748,0.04360962,8.979889,-0.01650238,0.09074707,0.053811647,12.84928835,77.66938347,4.86
152281859477,-0.023332214,-1.7456238,11.348186,0.29222566,0.052876282,-0.08459167,12.84928835,77.66938347,4.86
152281859498,0.14667511,-1.0574462,9.206251,-0.17385407,-0.037153624,-0.17194061,12.84928835,77.66938347,4.86
152281859519,-0.31728974,-0.6487549,9.812952,0.17248993,-0.16665038,-0.17805023,12.84928835,77.66938347,4.86
152281859540,-0.7373489,-1.8132232,9.937619,-0.08124695,-0.15149994,0.07836914,12.84932565,77.66936007,4.76
152281859562,-0.4091751,-0.0043655396,9.2504,0.06583557,-0.0020950318,0.15460357,12.84932565,77.66936007,4.76
152281859583,0.343486,-0.7448273,10.319034,-0.0067276,-0.016140748,0.035125732,12.84932565,77.66936007,4.76
152281859604,-0.27541655,-0.37070465,9.275879,-0.0077041625,-0.068423465,0.012895202,12.84932565,77.66936007,4.76
152281859625,-0.40941468,-0.120420836,10.558316,0.042010497,-0.09224854,0.056991577,12.84936673,77.66932895,5.11
152281859647,-0.44410706,-0.5196625,9.590419,-0.034701537,-0.038127135,0.1453186,12.84936673,77.66932895,5.11
152281859668,-0.35856324,-0.115393065,9.87014,0.060458373,0.07877807,0.19454956,12.84936673,77.66932895,5.11
152281859689,0.09152222,-0.46019745,9.997197,-0.017970275,0.19031525,0.1335907,12.84936673,77.66932895,5.11
152281859710,0.37555236,-0.6134613,9.453906,-0.012229919,0.1277649,-0.038412474,12.84936673,77.66932895,5.11
152281859732,-0.1737198,-0.7468597,9.715444,0.006340027,0.0015670776,-0.087278746,12.84941064,77.66928943,5.65
152281859753,0.0028701783,-0.8983261,9.954844,-0.0050216676,-0.061950684,-0.051849365,12.84941064,77.66928943,5.65
152281859774,-0.47055054,-0.48388824,9.997317,0.013304139,-0.08369751,-0.0048172,12.84941064,77.66928943,5.65
152281859795,-0.2677582,-0.9672394,9.849443,-0.015164184,0.0040161135,0.08838501,12.84941064,77.66928943,5.65
152281859816,-0.4013962,-0.8662628,9.881627,0.022950744,0.12813263,0.098646544,12.84941064,77.66928943,5.65
152281859838,-0.08578491,-0.53987885,9.668065,-0.0147995,0.1812729,0.0041015623,12.84946694,77.66926236,6.32
152281859859,0.27924043,-0.824028,10.057256,0.01073761,0.06240692,-0.13798065,12.84946694,77.66926236,6.32
152281859880,-0.12095795,-0.62518466,10.155481,0.0025512695,-0.07649078,-0.15863189,12.84946694,77.66926236,6.32
152281859901,-0.43800813,-0.9171082,9.361188,0.0065841675,-0.13097534,-0.073840335,12.84946694,77.66926236,6.32
152281859923,-0.63457644,-0.6469574,9.915601,-0.0077072144,-0.09175873,0.005569458,12.84946694,77.66926236,6.32
152281859944,-0.53719026,-1.1350921,9.550099,0.005241394,-0.017366027,0.05381317,12.84950635,77.66922808,6.73
152281859965,-0.4157547,-0.754158,9.618294,-0.012960816,0.083050534,0.061265565,12.84950635,77.66922808,6.73
152281859987,0.07417603,-0.8123032,9.732195,0.025149535,0.09417267,-0.015563965,12.84950635,77.66922808,6.73
152281860008,-0.06101532,-0.69206697,10.116359,0.0021896362,0.028199768,-0.0839798,12.84950635,77.66922808,6.73
152281860029,0.06807556,-1.0811371,9.494226,-0.020043945,-0.06977081,-0.096932985,12.84955652,77.6691902,7.22
152281860050,-0.53479767,-1.0636688,9.752652,0.0146484375,-0.11668243,-0.03779907,12.84955652,77.6691902,7.22
152281860072,-0.3973282,-1.160701,9.811516,-0.0016036987,-0.0791748,0.02645111,12.84955652,77.6691902,7.22
152281860093,-0.41790923,-1.0860412,9.960231,-0.009786988,-0.025056457,0.05271759,12.84955652,77.6691902,7.22
152281860114,-0.33703154,-0.8748749,9.745234,-0.00917511,0.02123413,0.05344696,12.84955652,77.6691902,7.22
152281860135,-0.2508896,-0.9965485,9.606569,-0.0062423707,0.03210907,0.023646545,12.84961211,77.66914539,7.74
152281860156,0.04510498,-0.8503479,9.52318,-0.009541321,0.016712952,4.348755E-4,12.84961211,77.66914539,7.74
152281860178,-0.37734985,-1.255574,10.055344,-0.0108856205,-2.6245118E-4,-5.4016116E-4,12.84961211,77.66914539,7.74
152281860199,-0.14141846,-1.0306488,10.012993,-0.021511842,-0.01907196,-5.355835E-4,12.84961211,77.66914539,7.74
152281860220,-0.54736024,-1.0512253,10.301328,0.060461424,-0.057795715,-0.0057922364,12.84961211,77.66914539,7.74
152281860241,-0.77707213,-1.9565521,10.041586,-0.005265808,-0.041671753,0.061024476,12.8496749,77.66910391,7.86
152281860263,-0.39625245,-0.8179245,9.789381,-0.018460084,0.03186493,0.08680115,12.8496749,77.66910391,7.86
152281860284,0.10037689,-0.9269196,9.252314,0.01745758,0.08293152,0.06346436,12.8496749,77.66910391,7.86
152281860305,-0.07609558,-0.6287735,9.556082,-0.015040589,0.07584534,-0.016296387,12.8496749,77.66910391,7.86
152281860326,-0.08757782,-1.0441681,9.806249,0.026741028,0.00572052,-0.04525299,12.84972569,77.66907024,7.59
152281860348,-0.13699035,-1.1187073,9.765097,0.0029159547,-0.031036377,-0.036090087,12.84972569,77.66907024,7.59
152281860369,-0.60514677,-0.8215149,9.958074,-0.006246948,-0.031651307,0.006666565,12.84972569,77.66907024,7.59
152281860390,-0.51110685,-1.2054428,9.6709385,-0.013693238,0.022703553,0.033535767,12.84972569,77.66907024,7.59
152281860412,-0.49627534,-2.2567306,9.84358,-0.003190613,0.06778107,0.019496154,12.84972569,77.66907024,7.59
152281860433,-0.63051,-2.742354,9.775145,-0.006246948,0.08134003,-0.0077453614,12.84977947,77.66901791,7.78
152281860454,0.15457611,-2.9798417,9.631816,2.3040772E-4,0.055441283,-0.07444916,12.84977947,77.66901791,7.78
152281860475,-0.49902496,-3.0122666,9.481308,0.0047485353,-0.023347473,-0.116111755,12.84977947,77.66901791,7.78
152281860496,-0.2500534,-3.141954,9.716281,0.02014618,-0.058282472,-0.073228456,12.84977947,77.66901791,7.78
152281860518,-0.57080996,-3.6125062,9.64653,0.017459106,-0.068789676,-0.032183837,12.84977947,77.66901791,7.78
152281860539,-0.62680054,-3.4109101,9.422562,-0.031161498,-0.039108276,0.004469299,12.84983149,77.66897755,7.2
152281860560,-0.35748902,-3.149611,9.843938,-0.03299103,-0.008203125,0.020713806,12.84983149,77.66897755,7.2
152281860582,-0.2244461,-2.9842682,9.630737,0.011834716,-0.0064956667,-0.0017608643,12.84983149,77.66897755,7.2
152281860603,-0.037330627,-2.658963,9.716878,0.020019531,-0.021635437,-0.03804474,12.84983149,77.66897755,7.2
152281860624,-0.38452607,-2.780519,9.748581,-0.018458556,-0.059994508,-0.044151306,12.84987425,77.66895305,5.35
152281860645,-0.71641237,-2.62032,9.745832,0.0021865845,-0.07648621,0.023643494,12.84987425,77.66895305,5.35
152281860667,-0.581221,-2.2404587,9.589464,0.0053619384,-0.02859955,0.13212433,12.84987425,77.66895305,5.35
152281860688,-0.19250488,-1.8142974,10.512014,3.4942626E-4,0.016108703,0.14409485,12.84987425,77.66895305,5.35
152281860709,-0.27900237,-1.957988,9.365374,2.3193359E-4,0.05128784,0.12675019,12.84987425,77.66895305,5.35
152281860730,-0.05611267,-1.6367477,9.90065,-0.0013549805,0.052023314,0.07104035,12.84989466,77.66894181,3.69
152281860751,0.335112,-1.5078949,9.862602,-0.019313049,-0.0055130003,-0.07579346,12.84989466,77.66894181,3.69
152281860773,-0.69655,-1.2536606,9.5629015,0.02380829,-0.04875336,-0.047940064,12.84989466,77.66894181,3.69
152281860794,-0.13555603,-1.3709075,9.689241,0.015257264,-0.03934784,0.05381317,12.84989466,77.66894181,3.69
152281860815,-0.38153687,-1.078624,9.616022,0.02930603,-0.04888153,0.0563797,12.84989466,77.66894181,3.69
152281860836,-0.70217437,-0.7509262,9.912852,-0.0012298584,-0.0060043335,0.17463532,12.84991049,77.66892674,3.01
152281860858,-0.10109711,-0.5301895,10.128207,-0.0050186156,0.08378601,0.20921478,12.84991049,77.66892674,3.01
152281860879,0.13794556,-0.37465516,9.884857,0.052519225,0.09392395,0.059313964,12.84991049,77.66892674,3.01
152281860900,-0.14704132,-0.20117798,9.993489,-0.004406738,0.06729126,-0.069200136,12.84991049,77.66892674,3.01
152281860922,-0.2827118,0.17653199,10.068027,0.11800079,0.048724364,-0.07616119,12.84991049,77.66892674,3.01
152281860943,-0.030270386,0.5703888,9.3665695,0.256427,0.03296814,-0.087890625,12.84993109,77.66891399,2.87
152281860964,-0.33164826,-0.7443466,8.336462,-0.6036514,0.018920898,-0.0891098,12.84993109,77.66891399,2.87
152281860985,-0.2260025,1.6762329,10.987109,-0.13170929,0.0032836914,-0.115377806,12.84993109,77.66891399,2.87
152281861006,-0.351149,-0.39906007,10.275003,0.50638735,-0.024084473,-0.10340576,12.84993109,77.66891399,2.87
152281861027,-0.080163576,0.40635985,10.1930485,-0.25325775,-0.020292664,-0.0865448,12.84996569,77.66887243,4.15
152281861049,-0.4424347,-0.10522308,9.1873455,0.15869293,-0.116802976,-0.12319641,12.84996569,77.66887243,4.15
152281861070,-0.7572113,-0.3953537,10.811116,-0.075871274,-0.080761716,0.01350708,12.84996569,77.66887243,4.15
152281861091,-0.054078676,-0.4399826,9.06591,0.034196474,-0.016018678,0.04673004,12.84996569,77.66887243,4.15
152281861112,0.013397217,-0.83826447,10.42396,0.01342926,-0.06757049,-0.02704773,12.84996569,77.66887243,4.15
152281861134,-0.5393448,-0.21959992,9.5908985,-0.0298172,-0.094200134,0.019252013,12.84999848,77.66884159,4.98
152281861155,-0.5357529,-0.7518829,9.890718,0.044821166,-0.057185363,0.083135985,12.84999848,77.66884159,4.98
152281861176,-0.34971315,-0.7797607,9.466949,-0.03568268,0.0010818482,0.11648712,12.84999848,77.66884159,4.98
152281861197,-0.27409822,-0.7624115,10.128685,0.039448548,0.049697876,0.09901428,12.84999848,77.66884159,4.98
152281861219,-0.12131653,-0.67639005,9.78316,-0.03604584,0.06924286,0.070309445,12.84999848,77.66884159,4.98
152281861240,-0.3556946,-0.9253662,9.712573,0.033460997,0.07290955,0.03426819,12.85004282,77.66878652,5.81
152281861261,-0.23904571,-0.9015549,9.61997,-0.016992187,0.05446472,-0.006036377,12.85004282,77.66878652,5.81
152281861283,-0.38991243,-0.78083646,9.736262,-0.0018478393,0.020133972,-0.030348206,12.85004282,77.66878652,5.81
152281861304,-0.2770874,-1.3633697,10.120905,-0.006489563,-0.011621093,-0.025946045,12.85004282,77.66878652,5.81
152281861325,-0.45212555,-2.0065613,9.898615,-0.03494873,-0.009056091,0.006665039,12.85008159,77.66874598,5.99
152281861346,-0.62512666,-1.0348358,9.841185,0.010250854,0.014144897,0.008993531,12.85008159,77.66874598,5.99
152281861368,-0.4540375,-1.3017547,9.854587,0.015135193,0.015249634,-0.012634277,12.85008159,77.66874598,5.99
152281861389,-0.25065154,-1.3937591,9.359393,0.007191467,0.004136658,-0.026927184,12.85008159,77.66874598,5.99
152281861410,-0.42532653,-1.5129211,9.510138,0.012445068,-0.022982787,-0.030714417,12.85008159,77.66874598,5.99
152281861431,-0.42018127,-1.497847,9.630498,-0.0019714355,-0.0134552,-5.3863524E-4,12.85012985,77.66870104,6.51
152281861452,-0.20350952,-1.4397018,9.8233595,0.007191467,0.03980713,0.0326828,12.85012985,77.66870104,6.51
152281861474,-0.23784943,-1.2785431,9.702402,-0.004411316,0.07486725,-0.0070129395,12.85012985,77.66870104,6.51
152281861495,-0.303891,-1.0575669,9.5166,0.006460571,0.064971924,-0.05001831,12.85012985,77.66870104,6.51
152281861516,-0.012446594,-0.43507537,10.28063,-0.008813476,0.021969605,-0.09082184,12.85012985,77.66870104,6.51
152281861538,-0.004307556,-0.70127714,9.843819,0.015258789,-0.027626038,-0.10731506,12.85016058,77.66866547,6.35
152281861559,-0.17790833,-0.8864807,9.649282,0.0049957274,-0.08247681,-0.09558716,12.85016058,77.66866547,6.35
152281861580,-0.7801819,-0.55746615,9.517914,0.0070724487,-0.11423798,-0.037677,12.85016058,77.66866547,6.35
152281861601,-0.23234406,-0.7013992,9.962503,-0.0068542482,-0.11325989,0.020959472,12.85016058,77.66866547,6.35
152281861623,-0.6708298,-0.60627747,10.047806,0.014401245,-0.034222413,0.080078125,12.85016058,77.66866547,6.35
152281861644,-0.46420747,-0.7197021,9.718432,0.00279541,0.041270446,0.08618927,12.85021581,77.66862895,6.86
152281861665,-0.2641678,-0.58295137,9.777059,0.011833191,0.095149234,0.052713014,12.85021581,77.66862895,6.86
152281861686,-0.18855438,-0.7951935,9.70647,0.007192993,0.122270204,0.0045913695,12.85021581,77.66862895,6.86
152281861707,-0.057310484,-0.67794645,9.914167,0.001208496,0.08928223,-0.05331421,12.85021581,77.66862895,6.86
152281861729,-0.03697052,-0.6747162,9.796082,0.019898986,0.00914154,-0.1062149,12.85025313,77.66861172,6.81
152281861750,-0.27960053,-0.5595032,9.633609,-0.02676239,-0.06940155,-0.08361359,12.85025313,77.66861172,6.81
152281861772,-0.31752777,-0.40229645,9.872409,0.011837768,-0.07526703,-0.043417357,12.85025313,77.66861172,6.81
152281861792,-0.3248291,-0.60795593,9.966452,-6.240845E-4,-0.08870697,-0.018745422,12.85025313,77.66861172,6.81
152281861814,-0.49962464,-0.44129333,9.594606,-6.240845E-4,-0.055477906,0.029141236,12.85025313,77.66861172,6.81
152281861835,-0.23414001,-0.8655426,9.846331,0.0029205321,0.028323364,0.05417938,12.85031475,77.66857384,7.55
152281861856,-0.32985228,-0.7657623,9.622839,-0.0024597168,0.070224,0.024865722,12.85031475,77.66857384,7.55
152281861877,0.008013916,-0.6361939,9.908546,0.0058486937,0.052261353,-0.023017883,12.85031475,77.66857384,7.55
152281861899,-0.17814484,-0.6744766,9.919072,0.010858154,-0.027011108,-0.056732178,12.85031475,77.66857384,7.55
152281861920,-0.28893432,-0.58965147,10.033208,-0.013085937,-0.07673035,-0.030957032,12.85031475,77.66857384,7.55
152281861942,-0.43178558,-1.0194016,9.501402,-0.031651307,-0.10531922,0.0016586303,12.85038495,77.66852136,8.22
152281861962,-0.5820557,-0.83288115,9.746312,0.009999084,-0.072943114,0.055278014,12.85038495,77.66852136,8.22
152281861984,-0.42221528,-1.152324,9.899692,0.00939331,0.0365036,0.10475769,12.85038495,77.66852136,8.22
152281862005,-0.15637207,-1.1496933,9.74559,-0.018582154,0.093681335,0.05808716,12.85038495,77.66852136,8.22
152281862026,-0.20793763,-1.1717056,10.2083645,0.018432617,0.10760651,0.011796569,12.85045072,77.66846917,8.5
152281862047,-0.041635133,-0.9835068,9.697856,0.0073165894,0.07633209,-0.021066284,12.85045072,77.66846917,8.5
152281862069,-0.3049652,-1.592482,10.043019,0.012815857,0.021598816,-0.057469178,12.85045072,77.66846917,8.5
152281862090,0.025242615,-1.3118026,9.930559,0.0041412353,-0.041304015,-0.06516723,12.85045072,77.66846917,8.5
152281862112,-0.27936402,-1.2507874,9.781845,0.0020599365,-0.09249268,-0.054415893,12.85045072,77.66846917,8.5
152281862132,-0.4204193,-1.5512054,9.979732,-0.007713318,-0.10092316,-0.013612365,12.85051048,77.66842836,8.46
152281862154,-0.43430176,-1.0284958,9.463002,-0.003919983,-0.07856598,0.03280487,12.85051048,77.66842836,8.46
152281862175,-0.49878693,-1.3109696,9.967287,7.1563723E-4,-0.03312378,0.051977538,12.85051048,77.66842836,8.46
152281862196,-0.23964234,-1.3365707,10.04027,0.012936401,0.007305908,0.060166933,12.85051048,77.66842836,8.46
152281862217,-0.3278183,-1.1244476,9.740805,-0.004779053,0.049333192,0.06297608,12.85051048,77.66842836,8.46
152281862239,-0.36993256,-1.3356125,9.727646,0.0021820068,0.105285645,0.052963257,12.85056501,77.66838535,8.14
152281862260,-0.27876586,-1.2109482,9.698692,0.01244812,0.1276474,0.013999939,12.85056501,77.66838535,8.14
152281862281,-0.11676941,-1.6040863,9.803978,0.003286743,0.10895233,-0.040730286,12.85056501,77.66838535,8.14
152281862302,-0.23617402,-1.4044082,9.854227,-0.01638031,0.052386474,-0.0765274,12.85056501,77.66838535,8.14
152281862324,-0.041874696,-0.81840515,9.808881,0.04408722,-0.03226471,-0.10523681,12.85063712,77.66833515,8.61
152281862345,-0.29994202,-0.8519043,9.881266,-0.0112487795,-0.09065704,-0.08141784,12.85063712,77.66833515,8.61
152281862366,-0.1484787,-0.8578827,9.530237,0.0037765503,-0.11264954,-0.04219971,12.85063712,77.66833515,8.61
152281862387,-0.47365874,-0.6087936,10.05678,7.217407E-4,-0.11008453,-0.013487244,12.85063712,77.66833515,8.61
152281862408,-0.4054672,-0.5133209,10.044095,0.0076843263,-0.09249268,0.028042603,12.85063712,77.66833515,8.61
152281862430,-0.4773697,-0.71132815,10.167569,0.012568665,-0.034828186,0.063949585,12.85069584,77.66828741,8.79
152281862451,-0.42532653,-0.7795242,9.984396,0.005238342,0.06765747,0.09754944,12.85069584,77.66828741,8.79
152281862472,-0.17025146,-0.6688522,10.013708,0.015501404,0.14584503,0.051493835,12.85069584,77.66828741,8.79
152281862493,0.03350067,-0.7602585,9.984156,-0.017480468,0.12874603,-0.02411499,12.85069584,77.66828741,8.79
152281862515,-0.3705307,-0.6695709,10.074968,0.0095153805,0.06521301,-0.05734558,12.85069584,77.66828741,8.79
152281862536,-0.022135925,-1.3164704,9.982962,0.00279541,-0.0023330688,-0.07689361,12.85077355,77.66822651,9.09
152281862557,-0.3456421,-1.3966309,9.581683,-0.031407166,-0.049121093,-0.06504364,12.85077355,77.66822651,9.09
152281862606,-0.4840683,-1.792044,9.997078,0.024905395,-0.03226471,-0.024600219,12.85077355,77.66822651,9.09
152281862628,-0.15553436,-2.232924,9.568644,-0.04753723,-9.94873E-4,-0.011776733,12.85077355,77.66822651,9.09
152281862649,-0.4276001,-2.1587417,9.9732685,0.0034088134,-0.02053833,-0.03425751,12.85077355,77.66822651,9.09
152281862670,-0.20434722,-3.1573899,9.883059,0.01929016,-0.03739319,-0.033522032,12.85084192,77.66818482,9.16
152281862691,-0.18305358,-2.1443894,9.374466,-0.014909362,-0.076243594,-0.027780151,12.85084192,77.66818482,9.16
152281862713,-0.55118865,-2.7041855,10.599829,0.02723236,-0.12865753,0.025354004,12.85084192,77.66818482,9.16
152281862734,-0.1572113,-2.8569686,9.311656,0.018678283,-0.07172851,0.069819644,12.85084192,77.66818482,9.16
152281862755,-0.5010605,-2.8951354,9.549261,-7.446289E-4,0.0114654545,0.09938355,12.85091028,77.66815239,8.2
152281862776,-0.1728836,-2.5918458,10.038234,-0.0039260862,0.052023314,0.073849484,12.85091028,77.66815239,8.2
152281862798,-0.39421996,-2.617447,9.831853,0.004507446,0.06557922,0.044166565,12.85091028,77.66815239,8.2
152281862819,-0.20291443,-2.748813,9.777301,-0.0068557737,0.03125,-0.007867431,12.85091028,77.66815239,8.2
152281862840,-0.15840454,-2.4699311,9.278753,0.01929016,-0.01051941,-0.024240112,12.85091028,77.66815239,8.2
152281862861,-0.25711364,-1.6479965,10.388664,-0.00868988,-0.047044374,-0.020698547,12.85095141,77.66812177,6.67
152281862883,-0.51326144,-1.7159516,9.540886,0.033825684,-0.04801941,0.031829834,12.85095141,77.66812177,6.67
152281862904,-0.48574525,-0.7906448,11.143481,0.35159606,0.0071884156,0.09253845,12.85095141,77.66812177,6.67
152281862925,-0.6107696,-3.5907319,5.866347,-0.4685379,0.08916168,0.09889221,12.85095141,77.66812177,6.67
152281862946,-0.27577513,0.71312106,10.094347,-0.2259018,0.12043152,0.03646698,12.85095141,77.66812177,6.67
152281862968,-0.095594786,-1.8754318,11.688685,0.4390747,0.08195343,-0.05954895,12.85099114,77.66808658,5.82
152281862989,-0.08925323,0.03439789,8.367088,-0.16689149,0.119822696,-0.0542923,12.85099114,77.66808658,5.82
152281863010,0.018780518,-0.3491745,9.967051,0.16015473,-0.026036073,-0.20114288,12.85099114,77.66808658,5.82
152281863032,-0.19537811,-0.71395874,10.254428,-0.08588715,-0.08332825,-0.12710723,12.85099114,77.66808658,5.82
152281863053,-0.42460784,-0.5816361,8.677435,0.05887146,-0.075631715,-0.039389037,12.85102663,77.66805139,5.97
152281863074,-0.48179474,-0.55387723,10.327525,-0.02285614,-0.032510377,-0.012876892,12.85102663,77.66805139,5.97
152281863095,-0.26500702,-0.46019897,9.464198,-0.005873108,-0.020785522,-0.022525024,12.85102663,77.66805139,5.97
152281863116,-0.29814607,-0.57026976,10.085612,0.028208923,-0.039596558,-0.04293213,12.85102663,77.66805139,5.97
152281863138,-0.28235474,-0.8818146,9.434766,0.00524292,-0.005264282,-0.013485718,12.85102663,77.66805139,5.97
152281863159,-0.25567323,-0.46713716,10.061684,-0.007832336,-0.016636658,-0.011529541,12.85108523,77.66801921,6.49
152281863180,-0.17336273,-0.51236266,9.683975,-0.007833863,-0.03128357,-0.013490295,12.85108523,77.66801921,6.49
152281863201,-0.35928193,0.082733154,10.350258,0.00914917,-0.03165741,-1.7089843E-4,12.85108523,77.66801921,6.49
152281863223,0.0034683228,0.46259308,10.324298,0.016111756,-0.025306702,0.016687011,12.85108523,77.66801921,6.49
152281863244,-0.49208528,-0.043009948,9.656099,0.005606079,-0.029454041,0.008625793,12.85108523,77.66801921,6.49
152281863265,-0.28725892,0.25058898,9.71963,-0.007093811,-0.04521332,0.015341187,12.85113805,77.6679855,6.99
152281863286,-0.31370085,0.35635072,9.878156,0.003161621,0.0033996582,0.06431885,12.85113805,77.6679855,6.99
152281863308,-0.2370102,0.18382874,10.333631,0.017703246,0.05519867,0.046728514,12.85113805,77.6679855,6.99
152281863329,-0.22732086,0.16420898,10.07975,0.0039001466,0.05715332,0.011920166,12.85113805,77.6679855,6.99
152281863351,-0.21379852,0.031884767,9.293352,-0.016748047,0.0162323,-0.022651672,12.85113805,77.6679855,6.99
152281863372,-0.43668976,0.69744873,10.146512,0.0043807984,-0.030680846,-0.011041259,12.85119349,77.66792937,7.97
152281863393,-0.37854615,-0.277507,9.982122,0.02014618,-0.025666809,0.0038604736,12.85119349,77.66792937,7.97
152281863414,-0.2512497,0.19220428,9.38727,-0.010884094,-0.011012268,0.0116821285,12.85119349,77.66792937,7.97
152281863435,-0.2658432,0.4593628,10.317838,-0.0025772094,-0.034587096,0.002268982,12.85119349,77.66792937,7.97
152281863456,-0.20458832,-0.023030091,9.637558,-0.0042892457,-0.029211426,0.024989318,12.85126847,77.66789129,9.18
152281863478,-0.3588028,0.16767883,10.111334,0.003163147,-0.010644531,0.040010072,12.85126847,77.66789129,9.18
152281863499,-0.004788208,-0.70283204,9.708147,-0.026519775,0.020744324,0.031822205,12.85126847,77.66789129,9.18
152281863520,-0.14584199,-1.1488526,9.508583,-0.012965393,0.039193727,0.025349427,12.85126847,77.66789129,9.18
152281863541,-0.12119751,-1.426419,10.854784,0.0321167,0.017933656,0.0094772335,12.85126847,77.66789129,9.18
152281863563,-0.4207779,-1.5809982,10.261484,-0.049726866,5.935669E-4,0.0084991455,12.85134253,77.6678373,9.71
152281863584,-0.400441,-1.3304688,9.876956,0.03321228,0.0012023926,0.01020813,12.85134253,77.6678373,9.71
152281863605,-0.53802794,-1.5281174,10.185872,-0.010151672,0.048236083,0.03316803,12.85134253,77.6678373,9.71
152281863626,-0.14321136,-1.1749359,9.776462,-0.0011108399,0.08023987,0.0116790775,12.85134253,77.6678373,9.71
152281863648,-0.15134887,-0.6640671,9.484774,0.0018173218,0.06375122,-0.024488831,12.85134253,77.6678373,9.71
152281863669,-0.08985291,-0.62829745,9.600947,0.0307724,0.013906861,-0.04586487,12.85141576,77.6677763,10.0
152281863690,-0.29611358,-0.042770386,9.904475,0.0047485353,-0.056085207,-0.05294647,12.85141576,77.6677763,10.0
152281863711,-0.33511811,-0.5608185,9.587428,-0.0022125244,-0.07294617,-0.023750305,12.85141576,77.6677763,10.0
152281863733,-0.505365,-0.3485733,9.853867,0.0104904175,-0.07868805,0.002394104,12.85141576,77.6677763,10.0
152281863754,-0.5904312,0.27308044,10.21315,-0.0042877197,-0.0045394897,0.0470932,12.85149367,77.66770607,10.52
152281863775,-0.38931274,-0.119580075,9.629181,0.008047486,0.025878906,0.007524109,12.85149367,77.66770607,10.52
152281863797,-0.2943161,0.04169464,10.1855135,-0.0035568238,0.012440491,0.006303406,12.85149367,77.66770607,10.52
152281863818,-0.46504822,0.23276214,9.9101,-0.008805847,0.009632873,-0.0024887086,12.85149367,77.66770607,10.52
152281863839,-0.468396,0.23874512,10.022321,-0.0077056885,-0.0067352294,-0.009577942,12.85149367,77.66770607,10.52
152281863860,-0.31884462,0.21230622,10.391658,0.0076812743,-0.033972166,-0.013853455,12.85156588,77.66765144,10.77
152281863881,-0.7567307,0.08321075,10.337217,0.007926941,-0.011381531,0.028526306,12.85156588,77.66765144,10.77
152281863903,-0.68099976,-0.40337068,9.886172,0.011227417,0.07401276,0.039523315,12.85156588,77.66765144,10.77
152281863924,-0.20650177,0.090509035,9.566729,-0.008808899,0.11053924,-0.0037139892,12.85156588,77.66765144,10.77
152281863945,-0.14477082,-0.10163422,10.154648,-0.0068557737,0.042370606,-0.05380249,12.85156588,77.66765144,10.77
152281863966,-0.15541688,-0.020753479,10.28553,0.046899416,-0.041308593,-0.04598694,12.85164574,77.66758858,11.42
152281863987,-0.5592041,-0.42095643,9.285814,-0.06084442,-0.045463562,-0.013735962,12.85164574,77.66758858,11.42
152281864009,-0.18640137,0.0077178953,9.75588,0.015013123,-0.054621886,-0.024726868,12.85164574,77.66758858,11.42
152281864030,-0.59749144,-0.23575287,10.074603,0.0041412353,-0.073431395,0.0031265258,12.85164574,77.66758858,11.42
152281864052,-0.3919464,-0.12113647,9.772634,0.012205506,-0.0063705444,0.022911072,12.85164574,77.66758858,11.42
152281864073,-0.7225159,-0.13537446,10.152252,-0.0061157225,0.004624939,0.0054458617,12.8517396,77.66751992,12.02
152281864094,-0.026921082,0.022433471,9.634686,0.006341553,-0.010403442,-0.0016403198,12.8517396,77.66751992,12.02
152281864115,-0.649176,-0.041215517,10.510097,-0.011491394,-0.011378479,-0.0011505127,12.8517396,77.66751992,12.02
152281864137,-0.43453828,-0.86422884,9.389064,-9.94873E-4,-0.017848205,0.006059265,12.8517396,77.66751992,12.02
152281864157,0.1837677,-0.21397857,9.978536,0.014163208,-0.021516418,-0.0035919189,12.85182587,77.66746083,11.88
152281864179,-0.6002426,-0.75296324,9.762103,-0.009056091,-0.040200807,0.0045959475,12.85182587,77.66746083,11.88
152281864200,-0.14117889,-0.6759125,10.1004505,-5.020142E-4,-0.036172487,0.018270874,12.85182587,77.66746083,11.88
152281864221,-0.012084961,-0.47539672,9.622006,-0.013818359,-0.02762146,0.022299195,12.85182587,77.66746083,11.88
152281864242,-1.007019,-0.82175446,9.924695,0.00756073,-0.0041687014,0.03365631,12.85182587,77.66746083,11.88
152281864264,-0.20398712,-1.1898896,9.846451,-0.011125183,0.067904666,0.04465332,12.85191489,77.66738471,12.09
152281864285,0.06963043,-1.3712647,9.307347,-0.0064880373,0.08475952,0.0053268434,12.85191489,77.66738471,12.09
152281864306,-0.273024,-1.4864792,9.63373,-0.010275269,0.024778748,-0.020332336,12.85191489,77.66738471,12.09
152281864327,-0.024526978,-1.3421936,9.611476,-0.012475586,-0.019558717,-0.008482361,12.85191489,77.66738471,12.09
152281864349,-0.08339081,-1.7178681,9.940489,0.0074356077,-0.016874695,0.002029419,12.85191489,77.66738471,12.09
152281864370,-0.18185882,-1.5768096,9.867269,-0.0019668578,-0.054742433,-0.018743897,12.85202715,77.66730124,13.06
152281864391,-0.19429779,-1.8556931,9.733389,0.01586609,-0.08626251,-0.0040802,12.85202715,77.66730124,13.06
152281864412,-0.65910494,-1.3207763,9.858055,-0.005143738,-0.028356934,0.044287108,12.85202715,77.66730124,13.06
152281864434,-0.67023164,-1.9886138,9.454867,-0.011132812,0.083172604,0.05747986,12.85202715,77.66730124,13.06
152281864455,0.07273865,-1.6128204,9.981407,0.011225891,0.13643798,0.02413025,12.85217037,77.66719443,14.73
152281864477,0.05240326,-1.4697326,10.097694,0.01146698,0.091481015,-0.039512634,12.85217037,77.66719443,14.73
152281864497,-0.48311004,-1.5571884,9.642222,-0.007833863,-0.016148377,-0.043786623,12.85217037,77.66719443,14.73
152281864519,-0.1602005,-1.7204987,9.658374,0.004751587,-0.08760681,-0.037675478,12.85217037,77.66719443,14.73
152281864540,-0.5062027,-1.2183654,9.657659,-0.032380678,-0.09285736,0.001171875,12.85217037,77.66719443,14.73
152281864561,-0.2821167,-1.4983246,9.968483,0.045678712,-0.046063233,0.012409973,12.85230111,77.66708308,15.68
152281864582,-0.4203003,-1.5082566,9.693311,-0.033607483,0.022581482,0.04611969,12.85230111,77.66708308,15.68
152281864604,-0.68123627,-1.2101074,9.389303,0.02918396,0.09453888,0.037690736,12.85230111,77.66708308,15.68
152281864625,-0.23007202,-1.148735,9.719391,-0.0066101076,0.08916016,-0.011286926,12.85230111,77.66708308,15.68
152281864646,-0.40307006,-0.8107483,9.37985,0.0078018187,0.03528595,-0.030839538,12.85230111,77.66708308,15.68
152281864668,0.011962891,-1.4097931,10.21686,0.026254272,-0.0027053833,-0.036334228,12.85235192,77.6670056,13.92
152281864689,-0.18963166,-1.1486175,9.770836,-0.04471741,-0.04289093,-0.032424927,12.85235192,77.6670056,13.92
152281864710,-0.28366852,-1.3097718,10.175464,0.055570982,-0.067201234,-0.026191711,12.85235192,77.6670056,13.92
152281864731,-0.62070006,-0.9874573,9.9644165,-0.026524354,-0.058895875,0.011672974,12.85235192,77.6670056,13.92
152281864752,-0.24383087,-0.90789795,9.902082,0.014407349,0.016474914,0.032678224,12.8523978,77.66697323,12.1
152281864773,-0.17838745,-1.0520645,9.781244,-0.017848205,0.062161256,0.008868408,12.8523978,77.66697323,12.1
152281864795,-0.29479828,-0.6704086,9.806849,0.012078857,0.04786682,-0.00713501,12.8523978,77.66697323,12.1
152281864816,0.16271058,-1.0226333,9.989301,0.0038986206,0.04236908,-0.019595336,12.8523978,77.66697323,12.1
152281864837,-0.29311982,-0.83575135,9.983798,0.014038086,-9.96399E-4,-0.035113525,12.8523978,77.66697323,12.1
152281864858,-0.22133942,-0.68440706,9.853989,-0.011984253,-0.027015686,-0.026194762,12.85248763,77.66689722,12.49
152281864880,-0.1548172,-0.9669983,9.735782,0.0046325685,-0.04606781,-0.03413849,12.85248763,77.66689722,12.49
152281864902,-0.4844284,-0.79495543,9.819773,0.013183594,-0.062071227,-0.0070144655,12.85248763,77.66689722,12.49
152281864922,-0.6806396,-0.53054655,10.622801,-0.00843811,-0.0041656494,0.028530885,12.85248763,77.66689722,12.49
152281864943,-0.73172605,-0.6571274,11.074567,0.039204407,0.018920898,-0.032180786,12.85248763,77.66689722,12.49
152281864965,0.23377839,-1.6414154,9.279831,-0.018215943,-0.101046756,-0.04989319,12.85259581,77.66683404,12.85
152281864987,-0.73196566,-1.6245468,9.716042,-0.017480468,-0.16909485,-0.02204132,12.85259581,77.66683404,12.85
152281865007,-1.07426,-1.5416352,9.66328,0.007559204,-0.14465943,0.04440918,12.85259581,77.66683404,12.85
152281865028,-0.64115906,-1.3066604,9.599869,-0.017362976,-0.017243957,0.10463562,12.85259581,77.66683404,12.85
152281865050,-0.6701126,-1.845047,10.018254,0.01452179,0.12849884,0.10744629,12.85259581,77.66683404,12.85
152281865071,-0.27876586,-1.3098907,9.666989,0.010496521,0.15268707,0.05711212,12.8526906,77.66677636,12.19
152281865092,-0.33140716,-1.6933426,9.925295,-0.009417725,0.17028657,0.015953064,12.8526906,77.66677636,12.19
152281865114,0.20793457,-1.5604203,9.742841,0.004626465,0.10027466,-0.03730774,12.8526906,77.66677636,12.19
152281865135,-0.51026917,-1.4991639,10.061806,0.021980286,0.012319947,-0.05319214,12.8526906,77.66677636,12.19
152281865156,-0.42149505,-1.1376069,9.697858,-0.0083206175,-0.016508484,-0.031321716,12.85277602,77.6667129,12.09
152281865217,-0.34181672,-1.1703873,9.919551,0.031140137,0.018182373,-0.013975525,12.85277602,77.6667129,12.09
152281865238,-0.32841644,-0.9366089,9.6874485,8.4533694E-4,0.029908752,-0.025587464,12.85277602,77.6667129,12.09
152281865260,-0.2961151,-0.5635681,9.937019,0.018438721,0.0253891,-0.031692505,12.85277602,77.6667129,12.09
152281865281,-0.23521729,-1.3786834,9.508105,3.6010743E-4,0.023802185,-0.04879608,12.85277602,77.6667129,12.09
152281865302,-0.38058013,-0.6603592,9.464435,0.00365448,-0.032269288,-0.078848265,12.85285879,77.66663631,11.81
152281865323,-0.54221344,-1.4497513,10.26328,0.015621948,-0.1104538,-0.066999815,12.85285879,77.66663631,11.81
152281865344,-0.29060975,-0.9528824,9.346949,-0.008688355,-0.119371034,-0.018742371,12.85285879,77.66663631,11.81
152281865366,-0.61818695,-0.77437747,9.589104,-0.0053878785,-0.055718996,0.030117799,12.85285879,77.66663631,11.81
152281865387,-0.53599393,-1.3207763,9.903519,0.026739502,0.043955993,0.045384217,12.85285879,77.66663631,11.81
152281865408,0.008491516,-0.82797545,9.414785,-0.025914002,0.08830567,0.0030014038,12.85294772,77.66658888,11.6
152281865429,-0.58050233,-1.161055,9.547586,0.018432617,0.044203185,-0.041586302,12.85294772,77.66658888,11.6
152281865451,-0.4749756,-0.94043887,9.867746,-0.021513367,-0.022857666,-0.05698242,12.85294772,77.66658888,11.6
152281865472,-0.3248291,-1.025383,10.190898,0.024299622,-0.07685242,-0.04146576,12.85294772,77.66658888,11.6
152281865493,-0.41814727,-0.68488467,9.7191515,-0.018333435,-0.084429935,-0.00566864,12.85303679,77.66650069,11.38
152281865514,-0.33595428,-0.8461609,9.917755,0.014157104,-0.022129823,0.02046814,12.85303679,77.66650069,11.38
152281865536,-0.49854583,-0.6497116,9.657659,-0.0050201416,0.051164247,0.025476074,12.85303679,77.66650069,11.38
152281865557,-0.32135773,-0.56285095,10.067189,0.021609496,0.030151367,-0.0054260255,12.85303679,77.66650069,11.38
152281865578,-0.18448944,-0.6607178,9.899214,0.0020645142,-0.01015625,-0.025582885,12.85303679,77.66650069,11.38
152281865599,0.0020324707,-0.791127,9.861765,-0.0138168335,-0.050463866,-0.009210205,12.85311944,77.66644801,11.24
152281865621,-0.3330826,-0.5885727,9.761147,0.017822266,-0.03348694,0.015463257,12.85311944,77.66644801,11.24
152281865642,-0.47126618,-0.68692017,9.631935,-0.008927917,-0.009425354,0.01839142,12.85311944,77.66644801,11.24
152281865663,-0.1265808,-0.8687744,9.664957,-0.001725769,0.021847535,0.015583801,12.85311944,77.66644801,11.24
152281865684,-0.3339203,-0.47060853,9.872292,-7.446289E-4,0.024162292,0.006668091,12.85311944,77.66644801,11.24
152281865705,-0.5834915,-0.69062805,9.835322,-0.016018678,0.017204285,0.002154541,12.85320571,77.66638285,11.6
152281865727,-0.07621155,-0.62123716,9.618413,-0.00440979,0.014027405,-0.0026138306,12.85320571,77.66638285,11.6
152281865748,-0.32985383,-0.58378756,10.235285,0.012811279,0.0014419556,-0.008969116,12.85320571,77.66638285,11.6
152281865770,-0.074179076,-0.6385849,9.625234,-0.0033096313,-0.0011184693,-0.0050582886,12.85320571,77.66638285,11.6
152281865791,-0.3706482,-0.51212156,9.797277,0.0014587402,-0.026400756,-0.016664123,12.85329447,77.66630712,11.84
152281865812,-0.20267335,-0.9072968,10.016581,0.001701355,-0.04765625,-0.010800171,12.85329447,77.66630712,11.84
152281865833,-0.49100953,-0.5402359,9.5964,-0.005267334,-0.04044647,0.019857788,12.85329447,77.66630712,11.84
152281865854,-0.33846587,-0.7877762,9.920268,-0.0077072144,0.003768921,0.025479127,12.85329447,77.66630712,11.84
152281865876,-0.5347946,-0.7938782,10.132871,-0.009541321,0.033454895,0.030116271,12.85329447,77.66630712,11.84
152281865897,-0.41694945,-0.6602402,10.262682,-0.02627716,0.05214691,0.0020248413,12.85338154,77.66621424,11.59
152281865918,-0.44111785,-0.89700925,10.353371,0.0604599,0.038095094,0.0016571045,12.85338154,77.66621424,11.59
152281865940,-0.47222596,-0.64540404,9.984157,-0.009051514,0.03992615,-0.005302429,12.85338154,77.66621424,11.59
152281865960,-0.27158508,-0.9929611,10.194725,0.038102724,0.030152893,-0.018740844,12.85338154,77.66621424,11.59
152281865982,-0.38680115,-0.80919343,9.569003,-0.053390503,0.016108703,-0.031323243,12.85338154,77.66621424,11.59
152281866003,-0.34145966,-1.1480163,9.604299,0.018556213,-0.03128662,-0.040489197,12.85346293,77.66613472,12.17
152281866024,-0.34037933,-0.73333895,9.963697,-0.02016754,-0.055841066,-0.022163391,12.85346293,77.66613472,12.17
152281866045,-0.41635284,-1.0121047,9.716162,-0.011000061,-0.046553038,-0.0066467286,12.85346293,77.66613472,12.17
152281866067,-0.31980285,-1.0958526,10.047806,0.009396362,-0.020783996,0.00837555,12.85346293,77.66613472,12.17
152281866088,-0.47234496,-0.83025056,9.630857,-0.027861023,-0.009786988,0.009719849,12.85346293,77.66613472,12.17
152281866110,-0.23150787,-1.0375869,10.2686615,0.030038452,0.036383055,0.0153366085,12.85356327,77.66605346,12.46
152281866131,-0.29420012,-0.8899506,9.710058,-0.02688446,0.073890686,0.0049591064,12.85356327,77.66605346,12.46
152281866152,-0.15744933,-0.9380447,10.080228,0.03174896,0.056175232,-0.029736329,12.85356327,77.66605346,12.46
152281866173,-0.20243683,-0.8369476,10.019092,-0.012229919,-0.002217102,-0.046351623,12.85356327,77.66605346,12.46
152281866194,-0.44446868,-0.86087644,9.583002,0.009144592,-0.055233765,-0.039021302,12.85356327,77.66605346,12.46
152281866215,-0.73172915,-1.0296936,9.815343,-0.015162659,-0.062315367,-0.0148330685,12.85365514,77.6659858,12.5
152281866237,-0.42257386,-0.8198379,9.733389,0.021487426,-0.05938568,-0.004447937,12.85365514,77.6659858,12.5
152281866258,-0.72084045,-1.3545166,10.020289,-0.0115005495,-0.03189697,0.015705872,12.85365514,77.6659858,12.5
152281866280,-0.48131713,-1.490071,9.70946,-0.023835754,0.017204285,0.026091004,12.85365514,77.6659858,12.5
152281866300,-0.6709488,-1.5453446,9.928284,0.014154052,0.038822938,0.006668091,12.8537483,77.66591993,12.42
152281866322,-0.31106567,-1.9299881,9.450678,-0.0052612303,0.044203185,0.006921387,12.8537483,77.66591993,12.42
152281866343,-0.44039917,-2.1604218,9.708384,-0.005142212,0.0503067,-0.0017623901,12.8537483,77.66591993,12.42
152281866365,-0.35126647,-2.1519241,9.998752,-0.012104797,0.05202179,-0.031324767,12.8537483,77.66591993,12.42
152281866385,-0.19154663,-2.5730605,9.56589,0.020263672,0.004255676,-0.039022826,12.8537483,77.66591993,12.42
152281866407,-0.39948273,-2.2178466,9.092352,0.008784485,-0.009422302,-0.030465698,12.85383335,77.6658631,11.69
152281866428,-0.35605317,-1.9145584,9.955444,0.0036514283,0.0038894652,-0.023265075,12.85383335,77.6658631,11.69
152281866449,-0.14022064,-1.4166107,10.191017,0.021487426,-0.002583313,-0.04500885,12.85383335,77.6658631,11.69
152281866470,-0.1828125,-1.5813568,9.524137,-0.038612366,-0.06585388,-0.06345673,12.85383335,77.6658631,11.69
152281866492,-0.43178254,-1.5352951,9.564815,0.014891053,-0.103242494,-0.03291168,12.85391742,77.66581999,10.65
152281866513,-0.23533478,-1.5094528,9.977457,-0.0147918705,-0.09297943,0.004231262,12.85391742,77.66581999,10.65
152281866534,-0.38931274,-1.3167114,9.928406,0.0034072876,-0.07233276,0.021812439,12.85391742,77.66581999,10.65
152281866556,-0.4543991,-1.3530807,9.700366,0.0035324097,-0.05657501,0.040127564,12.85391742,77.66581999,10.65
152281866577,-0.4814392,-1.2265015,9.657419,-0.02664032,-0.010769653,0.0674942,12.85391742,77.66581999,10.65
152281866598,-0.38381043,-1.347937,9.710417,0.012322998,0.010848999,0.046603393,12.85398894,77.66577551,9.86
152281866620,-0.10528412,-0.9284729,9.739491,-0.009178162,-0.014305115,0.031828307,12.85398894,77.66577551,9.86
152281866640,-0.5525055,-0.8456848,9.950536,0.016720582,-0.00844574,0.060044862,12.85398894,77.66577551,9.86
152281866662,-0.11844635,-0.836232,9.949938,-6.240845E-4,-0.004170227,0.046847533,12.85398894,77.66577551,9.86
152281866683,-0.33786926,-1.1191833,9.959513,0.008416748,-0.011499023,0.042570494,12.85398894,77.66577551,9.86
152281866704,-0.21427765,-1.4962921,9.77036,-0.005880737,-0.03605499,0.044161987,12.85405248,77.66572704,9.48
152281866725,-0.58205414,-1.4715271,9.95592,-0.005511475,-0.038250733,0.06150818,12.85405248,77.66572704,9.48
152281866747,-0.5679413,-1.3280747,9.632413,0.004750061,0.047380067,0.10964508,12.85405248,77.66572704,9.48
152281866768,-0.4606201,-1.3407577,10.077478,0.021733094,0.14682159,0.10536804,12.85405248,77.66572704,9.48
152281866789,0.17503357,-1.4224732,9.932233,-0.044844054,0.17602234,0.01216278,12.85405248,77.66572704,9.48
152281866810,-0.08829651,-1.4472396,9.704796,0.034924317,0.073768616,-0.07078552,12.85411317,77.6656788,9.04
152281866832,-0.07848511,-1.3270004,9.724535,-0.014057922,-0.05180969,-0.09216614,12.85411317,77.6656788,9.04
152281866853,-0.3275772,-1.5440277,10.0241165,0.009642029,-0.13268586,-0.050260924,12.85411317,77.6656788,9.04
152281866875,-0.68087924,-1.6378266,10.124376,-0.010276794,-0.13317414,0.013017273,12.85411317,77.6656788,9.04
152281866895,-0.84933317,-1.1498108,9.545553,0.0057266233,0.015376282,0.12467041,12.85417847,77.66563689,8.73
152281866917,-0.10671844,-1.288353,9.054785,-0.02639923,0.17443542,0.0985321,12.85417847,77.66563689,8.73
152281866938,-0.07238312,-1.4447266,10.769603,0.032850645,0.20913544,-0.009822083,12.85417847,77.66563689,8.73
152281866959,0.32769775,-1.6113846,9.205174,-0.019927979,0.10101013,-0.1282074,12.85417847,77.66563689,8.73
152281866980,-0.2070984,-1.1646454,10.034647,0.04237976,-0.08870544,-0.17475434,12.85417847,77.66563689,8.73
152281867002,-0.70971376,-1.1531616,10.7198305,0.01244812,-0.22028503,-0.10157623,12.85423556,77.66557464,8.46
152281867023,-0.7946579,-2.2445266,10.01993,-0.03311615,-0.12560272,0.05809021,12.85423556,77.66557464,8.46
152281867044,-0.6460617,-2.7199798,9.956282,0.015745545,5.8898923E-4,0.07604828,12.85423556,77.66557464,8.46
152281867065,-0.7608002,-1.5096939,9.792851,-0.017486572,0.051039122,0.04587097,12.85423556,77.66557464,8.46
152281867086,-0.07011261,-1.5728638,9.740329,-0.005267334,0.061793517,0.011308288,12.85423556,77.66557464,8.46
152281867108,-0.5418533,-1.9388443,10.273089,0.0057266233,0.037968446,-0.017028809,12.85428813,77.66553529,8.05
152281867129,-0.3822525,-1.6019363,9.719032,-0.0058776857,0.0040100096,-0.033891298,12.85428813,77.66553529,8.05
152281867150,-0.16115722,-1.307257,9.799192,0.033586122,-0.01601715,-0.035603333,12.85428813,77.66553529,8.05
152281867172,-0.568898,-0.94629824,11.3291645,0.2253952,-0.018704224,-0.016786193,12.85428813,77.66553529,8.05
152281867194,-0.34947357,-3.260997,10.356003,-0.75172424,-0.011624145,-0.007507324,12.85433362,77.6655012,7.18
152281867214,-0.5559738,0.747934,7.183,0.46705323,0.0078033446,0.023641968,12.85433362,77.6655012,7.18
152281867235,-0.61591035,-0.17485504,10.769603,-0.022846986,7.141113E-4,-0.09888611,12.85433362,77.6655012,7.18
152281867256,-0.35724792,-0.2765503,9.223119,-0.03384552,-0.032881163,-0.016540527,12.85433362,77.6655012,7.18
152281867278,0.14859314,-1.150769,10.322263,0.08135529,-0.15553284,-0.06968689,12.85433362,77.6655012,7.18
152281867299,-0.73400116,-0.7735397,8.939451,-0.06499634,-0.16933899,0.06273346,12.8543823,77.66545501,6.45
152281867320,-0.5085953,-0.7098907,10.296659,0.07059936,-0.036421202,0.15338287,12.8543823,77.66545501,6.45
152281867342,-0.036608886,-0.63355863,9.976738,-0.023710633,0.02710266,0.13957672,12.8543823,77.66545501,6.45
152281867363,-0.7482376,-0.7182663,9.58647,0.0472641,0.10638885,0.14544067,12.8543823,77.66545501,6.45
152281867384,-0.22695923,-1.0988433,9.637917,-0.043865968,0.13582763,0.09095307,12.8543823,77.66545501,6.45
152281867405,-0.17587432,-0.42347106,9.761505,0.011106873,0.13717651,0.01191864,12.85443384,77.66540613,6.67
152281867427,0.050724793,-0.95957947,9.775383,0.020751953,0.057151794,-0.07261658,12.85443384,77.66540613,6.67
152281867448,-0.19752808,-0.30693513,9.907109,-0.04875183,-0.034591675,-0.065655515,12.85443384,77.66540613,6.67
152281867469,-0.5091934,-0.7174271,9.395401,0.08123169,-0.03641968,-0.026560973,12.85443384,77.66540613,6.67
152281867490,-0.7073227,-0.41712648,10.164339,-0.058036804,-0.050958253,-0.011413574,12.85448756,77.6653613,6.89
152281867512,-0.5403015,-0.3038269,9.462761,0.04348297,0.020510864,0.03793945,12.85448756,77.6653613,6.89
152281867533,-0.22863618,-0.6192047,10.374069,0.0046295165,0.03442993,-0.014830017,12.85448756,77.6653613,6.89
152281867554,-0.68243563,-0.15906219,9.675364,-0.03213501,0.005238342,-0.010800171,12.85448756,77.6653613,6.89
152281867575,-0.29300386,-0.4803009,10.023997,0.03993683,-0.0052703856,-0.027294923,12.85448756,77.6653613,6.89
152281867596,-0.07693329,-0.72173464,9.650955,-0.017477417,-0.038739014,-0.03230133,12.85454377,77.66531924,7.28
152281867618,-0.005505371,-0.63319856,9.208761,-0.0017211915,-0.07966156,-0.036454774,12.85454377,77.66531924,7.28
152281867639,-0.20961456,-0.53820497,9.973749,-0.032263182,-0.13904114,-0.025215149,12.85454377,77.66531924,7.28
152281867660,-0.61842805,-0.8133804,9.604538,0.034313966,-0.124501035,0.06065216,12.85454377,77.66531924,7.28
152281867682,-0.44386902,-0.86207277,9.178972,-0.041911315,-0.049732972,0.1006073,12.85454377,77.66531924,7.28
152281867703,-0.2610565,-1.0477585,10.108104,0.0440918,0.02013855,0.13578796,12.85459354,77.66526934,7.59
152281867724,-0.24430999,-1.1664383,9.906271,-0.027861023,0.07755432,0.096572876,12.85459354,77.66526934,7.59
152281867745,-0.29120788,-1.0027726,9.967529,-0.001963806,0.08415222,0.04221039,12.85459354,77.66526934,7.59
152281867766,-0.115335084,-1.7123626,9.282942,0.0073135374,0.023312379,0.0037338256,12.85459354,77.66526934,7.59
152281867788,-0.23748931,-0.76612246,9.946828,-0.027005006,-0.030552674,0.014117432,12.85459354,77.66526934,7.59
152281867809,-1.053801,-1.7641693,10.5603485,0.05447235,-0.009303284,0.05417938,12.85464282,77.66521832,7.83
152281867830,-0.8039917,-1.3625305,9.849564,-0.049365234,0.05922699,0.08362579,12.85464282,77.66521832,7.83
152281867851,-0.4455429,-0.9345764,9.918236,0.040670775,0.09844665,0.040498354,12.85464282,77.66521832,7.83
152281867873,-0.44710237,-1.7459824,9.5895815,-0.07562866,0.04615631,-0.025709534,12.85464282,77.66521832,7.83
152281867894,-0.49172974,-0.59946287,9.941922,0.062783815,-0.0079574585,-0.013117981,12.85469221,77.66516099,7.7
152281867915,-0.27625427,-1.3645661,9.395404,-0.036286928,0.024780273,0.013386535,12.85469221,77.66516099,7.7
152281867936,-0.575116,-1.4129028,9.508703,0.0060943603,0.07083587,0.02620697,12.85469221,77.66516099,7.7
152281867958,-0.36610413,-1.0069596,9.601665,-0.0050231935,0.10308838,-0.011653137,12.85469221,77.66516099,7.7
152281867979,-0.23976135,-1.3923218,10.136103,-0.022975158,0.10064392,-0.056858826,12.85469221,77.66516099,7.7
152281868000,0.012081909,-1.5411575,9.639948,0.036517333,0.1024765,-0.093141176,12.85474152,77.66510454,7.43
152281868021,-0.34576568,-1.0939362,10.086927,0.0150115965,0.058374025,-0.13785858,12.85474152,77.66510454,7.43
152281868043,-0.2334259,-1.5262039,10.098294,0.048977662,-0.019805908,-0.18416138,12.85474152,77.66510454,7.43
152281868064,-0.18580322,-1.2522247,9.786632,-2.6245118E-4,-0.12218018,-0.18672638,12.85474152,77.66510454,7.43
152281868085,-0.28283232,-1.4243882,9.635762,0.008052063,-0.17544861,-0.12698822,12.85474152,77.66510454,7.43
152281868106,-0.7347183,-1.0116256,9.803858,-0.0049026487,-0.1348877,-0.0045730593,12.85477776,77.66506549,6.79
152281868128,-0.8221741,-0.9093338,9.966449,0.02588501,-0.046556093,0.043554686,12.85477776,77.66506549,6.79
152281868149,-0.715094,-1.532782,9.9168,-0.029086303,-0.0039260862,0.027915955,12.85477776,77.66506549,6.79
152281868170,0.22731933,-1.2410965,9.789022,0.010740662,0.007800293,0.014733886,12.85477776,77.66506549,6.79
152281868192,-0.4965164,-1.3558319,9.573669,-0.030917358,0.027468871,0.014735413,12.85482233,77.66502487,6.86
152281868213,-0.6783676,-1.1504104,9.528084,0.03394928,0.03112793,0.0017822266,12.85482233,77.66502487,6.86
152281868234,-0.76283723,-2.0334792,9.850879,-0.01711731,0.0470108,0.009239197,12.85482233,77.66502487,6.86
152281868255,-0.49627227,-2.2785048,9.698575,0.021488953,0.07938538,0.0012954712,12.85482233,77.66502487,6.86
152281868276,-0.5673386,-2.480101,10.043261,-0.02884369,0.10101318,-0.036334228,12.85482233,77.66502487,6.86
152281868298,-0.19095,-2.774301,9.6486845,0.021487426,0.1072403,-0.086056516,12.85486062,77.66497528,6.56
152281868113,-0.003590393,-3.2334793,9.906868,0.020510864,0.061671447,-0.18440247,12.85486062,77.66497528,6.56
152281868134,-0.17994079,-3.3256042,9.647966,0.035295106,-0.049369812,-0.2607666,12.85486062,77.66497528,6.56
152281868156,-0.5714081,-3.4064803,9.907109,0.028573608,-0.13219604,-0.22717133,12.85486062,77.66497528,6.56
152281868102,-1.2948776,-3.0363114,8.7973175,5.950928E-4,-0.075875856,-0.028396606,12.85486062,77.66497528,6.56
152281868123,-0.35593718,-1.610788,13.668744,0.067677304,0.03467102,-7.9040526E-4,12.85490786,77.66494614,5.17
152281868144,-0.32243347,-1.6627121,4.55484,0.2117157,-0.025918579,-0.13516998,12.85490786,77.66494614,5.17
152281868166,-0.5663803,-4.596072,14.676842,-0.81721497,0.010731506,-0.08850555,12.85490786,77.66494614,5.17
152281868187,-0.3787857,0.2414978,6.1053925,0.12668458,9.6282957E-4,-0.13089295,12.85490786,77.66494614,5.17
152281868208,-0.41371918,-1.2771088,10.773311,0.4635086,-0.0333725,-0.10718842,12.85490786,77.66494614,5.17
152281868229,-0.15517578,-1.0060028,10.256581,-0.25473022,-0.08626099,-0.10181427,12.8549379,77.6649176,4.26
152281868251,-0.4207779,0.1258026,9.224676,0.14964446,-0.10800934,-0.04342041,12.8549379,77.6649176,4.26
152281868272,-0.51003265,-0.41437683,10.964018,-0.03580475,-0.089926146,0.031089783,12.8549379,77.6649176,4.26
152281868293,-0.14273223,0.05282135,9.441704,-0.011618042,-0.042649843,0.12503967,12.8549379,77.6649176,4.26
152281868314,0.3054428,0.68596345,11.2301,0.093688965,-0.023103332,0.10903473,12.85497276,77.66490504,4.44
152281868336,-0.98512423,-0.92560273,8.751013,-0.04923706,-0.007344055,0.11612091,12.85497276,77.66490504,4.44
152281868357,-0.23749085,-0.065264896,10.068265,0.061068725,0.029789735,0.1365219,12.85497276,77.66490504,4.44
152281868378,-0.35222626,0.055093385,9.865234,-0.059259035,0.06851349,0.1117218,12.85497276,77.66490504,4.44
152281868399,-0.3187256,-0.10342713,9.538252,-0.0024505616,0.08182831,0.07238312,12.85497276,77.66490504,4.44
152281868421,-0.2573517,-0.2675766,9.926251,0.008418274,0.06777801,0.0077667236,12.85499603,77.66487488,4.3
152281868442,-0.09212494,-0.42944947,9.259371,0.048614502,0.03944397,-0.03670349,12.85499603,77.66487488,4.3
152281868463,-0.55693054,0.011546326,10.084297,-0.031529237,0.023072815,-0.0483078,12.85499603,77.66487488,4.3
152281868485,-0.37088928,0.05066681,9.299449,-0.023092652,-0.0027008057,-0.07029877,12.85499603,77.66487488,4.3
152281868506,-0.32841644,-0.009629821,10.198438,0.035661317,-0.055477906,-0.0832489,12.85499603,77.66487488,4.3
152281868527,-0.31657258,-0.38027954,9.763661,-1.296997E-4,-0.10886536,-0.052949525,12.85503533,77.6648502,5.02
152281868548,-0.6796799,0.03427582,9.774068,-0.005508423,-0.13097382,0.02156372,12.85503533,77.6648502,5.02
152281868569,-0.2348587,-0.45852202,9.945874,-0.004777527,-0.09591217,0.07434235,12.85503533,77.6648502,5.02
152281868591,-0.8701523,0.0013748169,9.572474,0.0018188476,-0.017732238,0.14543915,12.85503533,77.6648502,5.02
152281868612,-0.61938477,-0.1997406,9.770717,-0.0050201416,0.07669983,0.14385375,12.85507402,77.66483659,5.84
152281868633,-0.33212432,0.012142944,9.894785,-0.017724609,0.10797729,0.07421722,12.85507402,77.66483659,5.84
152281868654,-0.094874576,-0.05521393,10.306229,0.023687745,0.07792206,0.006666565,12.85507402,77.66483659,5.84
152281868676,-0.43226472,-0.517746,9.699771,-0.00941925,0.058984376,0.008622741,12.85507402,77.66483659,5.84
152281868697,-0.23258057,-0.28983003,9.845251,-0.017601013,0.067659,-0.00236969,12.85507402,77.66483659,5.84
152281868718,-0.19944611,-0.53509367,9.9662075,0.025273133,0.020875549,-0.062480163,12.85511992,77.66481223,6.43
152281868739,-0.1198822,-1.4566895,9.942282,-0.047650147,-0.03886261,-0.06968842,12.85511992,77.66481223,6.43
152281868761,-0.48084107,-1.2040085,9.965137,-0.008929444,-0.12059021,-0.081048585,12.85511992,77.66481223,6.43
152281868919,-0.62680054,-1.3159897,9.798952,0.0095123295,-0.11949158,0.023890685,12.85511992,77.66481223,6.43
152281868940,-0.9617981,-1.9721038,9.878634,8.468628E-4,-0.054620363,0.08533325,12.85511992,77.66481223,6.43
152281868911,-0.16020203,-2.5533218,9.850398,-0.0066085816,0.037115477,0.11575165,12.85517702,77.66476775,7.15
152281868932,-0.04713745,-2.7044282,9.930438,0.03712616,0.07718811,0.07446136,12.85517702,77.66476775,7.15
152281868953,-0.3903885,-2.6417358,9.659332,0.0037750243,0.05984192,0.0054473877,12.85517702,77.66476775,7.15
152281868974,-0.4837082,-2.6678162,9.714609,-0.0045333863,0.038339235,-0.0054244995,12.85517702,77.66476775,7.15
152281868996,-0.22552185,-2.472084,9.738174,0.0038986206,0.012316895,-0.033280946,12.85517702,77.66476775,7.15
152281869017,-0.27697143,-2.4357147,9.917038,-0.028105164,-0.046801757,-0.07701874,12.85522509,77.66473958,6.41
152281869038,-0.7515869,-2.574617,9.448883,0.014160156,-0.035075378,0.031100463,12.85522509,77.66473958,6.41
152281869059,-0.6471405,-2.469812,9.831495,-0.0046554566,0.016349792,0.07800293,12.85522509,77.66473958,6.41
152281869081,-0.32326967,-2.3579483,9.480586,0.007929993,0.0766983,0.046362303,12.85522509,77.66473958,6.41
152281869102,0.09295807,-2.629773,9.735664,0.012078857,0.038578797,-0.07249756,12.85527143,77.66471402,5.29
152281869123,-0.37232208,-2.1839874,9.61949,-0.0017272949,-0.03067627,-0.101940915,12.85527143,77.66471402,5.29
152281869144,-0.5008179,-2.2070785,9.811397,0.012934876,-0.034463502,-0.06663056,12.85527143,77.66471402,5.29
152281869166,-0.7192825,-1.7560349,9.664714,-0.058154296,-0.042033385,-0.023628235,12.85527143,77.66471402,5.29
152281869187,-0.38979188,-1.1309083,12.17586,0.19252777,-0.028349305,-0.002861023,12.85527143,77.66471402,5.29
152281869208,-0.45535582,-1.7926438,5.936461,0.20841828,-0.019560242,0.047831725,12.85529152,77.66470189,3.48
152281869229,-0.2087738,-4.0131836,12.594729,-0.78410184,0.027713012,0.05112915,12.85529152,77.66470189,3.48
152281869421,-0.28833467,-0.4298126,8.272092,-0.13195343,0.008285522,-0.023506165,12.85529152,77.66470189,3.48
152281869443,-0.5581268,-0.27427673,8.575983,0.6344269,-0.03214874,-0.0011520386,12.85529152,77.66470189,3.48
152281869464,-0.4482971,-1.3978271,11.52059,-0.12828521,0.009507751,0.023280334,12.85529152,77.66470189,3.48
152281869485,-0.23102875,0.5614136,8.384318,0.07500305,0.042251587,0.040380858,12.85530781,77.66469457,2.26
152281869506,-0.3379883,0.9242859,11.899374,0.020880127,0.012808228,-0.038168333,12.85530781,77.66469457,2.26
152281869528,0.23389435,0.9187851,9.80039,-0.066223145,-5.0354004E-4,-0.026557922,12.85530781,77.66469457,2.26
152281869549,-0.58935547,-0.10713806,10.369522,0.07915191,0.02331543,-0.022283936,12.85530781,77.66469457,2.26
152281869570,-0.17312317,0.44249266,9.75696,-0.065000914,-0.017245483,-0.040730286,12.85533428,77.66467586,3.46
152281869591,-0.2005188,0.30095825,10.04924,0.036276244,-0.061955262,-0.043788146,12.85533428,77.66467586,3.46
152281869613,-0.35916442,0.092660524,9.576059,-0.0292099,-0.08626404,0.010328675,12.85533428,77.66467586,3.46
152281869634,-0.37148744,0.20321198,9.90699,0.022218322,-0.08748321,0.044770814,12.85533428,77.66467586,3.46
152281869655,-0.39816743,0.1023529,9.893588,-0.010638428,-0.090782166,0.07702331,12.85533428,77.66467586,3.46
152281869676,-0.48634338,-0.17019042,9.726212,0.00975647,-0.07160034,0.13395691,12.85537108,77.66465473,4.62
152281869698,-0.43178558,0.044805907,9.886412,0.026373291,0.008781433,0.18001708,12.85537108,77.66465473,4.62
152281869719,-0.57092744,0.06418915,9.917157,0.008047486,0.117874146,0.20505981,12.85537108,77.66465473,4.62
152281869740,-0.5014175,0.13094635,10.049718,0.013790893,0.20583192,0.12662812,12.85537108,77.66465473,4.62
152281869761,0.11090545,-0.00448761,10.128801,-0.055107117,0.24028778,0.01777954,12.85537108,77.66465473,4.62
152281869783,0.23222046,-0.10785675,10.116119,0.038467407,0.20058136,-0.09949951,12.85540808,77.66463432,4.86
152281869804,0.1257431,-0.548735,9.995166,0.020021057,0.09649201,-0.20285797,12.85540808,77.66463432,4.86
152281869825,0.3115433,0.24915466,10.1981945,0.019166565,-0.07209015,-0.24793395,12.85540808,77.66463432,4.86
152281869846,-0.51134646,-0.10175629,10.339729,0.03297577,-0.23506622,-0.19784546,12.85540808,77.66463432,4.86
152281869868,-0.93954164,-0.7742554,9.918833,-0.016992187,-0.20037079,0.017416382,12.85540808,77.66463432,4.86
152281869889,-0.47234192,-0.49250335,9.9753065,0.0025512695,-0.070381165,0.05014496,12.85546052,77.66459327,6.17
152281869910,-0.449852,-1.2632294,9.785555,0.0012054443,-0.046191406,0.02669983,12.85546052,77.66459327,6.17
152281869931,-0.18975373,-1.2966125,9.961426,-0.020043945,-0.06793518,0.011187744,12.85546052,77.66459327,6.17
152281869953,-0.28235322,-1.2689759,8.923895,-0.0015991211,-0.064396665,0.047218323,12.85546052,77.66459327,6.17
152281869974,-0.4609787,-1.706981,10.127487,-0.011131287,-0.020173645,0.09339599,12.85551464,77.6645363,7.36
152281869995,-0.060179137,-1.7014755,9.518873,0.0019424439,0.020378113,0.08569946,12.85551464,77.6645363,7.36
152281870016,-0.2705124,-1.5124435,9.76019,0.017088318,0.030154418,0.068841554,12.85551464,77.6645363,7.36
152281870038,-0.30054015,-1.2202774,10.420728,-0.0041687014,0.042002868,0.057359315,12.85551464,77.6645363,7.36
152281870059,-0.43059236,-1.5550369,9.859253,0.026741028,0.036627196,0.035980225,12.85551464,77.6645363,7.36
152281870080,-0.20051727,-1.6071991,9.549382,-0.034214783,0.021365356,0.028282166,12.85556348,77.66449164,7.28
152281870101,-0.45188445,-1.1233704,9.601306,0.0035339356,0.027709961,0.033654787,12.85556348,77.66449164,7.28
152281870122,0.017585754,-1.2512665,10.1137295,0.008540344,0.03491974,0.024624635,12.85556348,77.66449164,7.28
152281870144,-0.42006224,-1.2337967,9.303398,-0.006730652,0.048599243,0.014976501,12.85556348,77.66449164,7.28
152281870165,-0.495076,-1.2107086,9.886531,1.0986328E-4,0.060696412,-0.003590393,12.85556348,77.66449164,7.28
152281870186,-0.8650055,-1.4855239,9.840231,-0.0019683838,0.048228454,-0.043664552,12.85561566,77.66446006,6.8
152281870207,-0.36861572,-0.88025665,10.141846,-0.011741638,3.4637452E-4,-0.06797638,12.85561566,77.66446006,6.8
152281870229,0.28378755,-0.36580354,9.63624,0.0073181153,-0.03190155,-0.056245424,12.85561566,77.66446006,6.8
152281870250,-0.18604279,-1.7638092,10.247368,-0.0049026487,-0.049732972,-0.04488678,12.85561566,77.66446006,6.8
152281870271,-0.13447876,-1.5668777,9.843817,0.03455963,-0.029820252,0.0028793334,12.85567036,77.66441715,6.86
152281870292,-0.4514099,-1.7964691,10.017059,1.0681152E-4,0.01915741,0.035365295,12.85567036,77.66441715,6.86
152281870314,-0.6747772,-2.2923827,9.758875,-0.025541687,0.07132111,0.041104127,12.85567036,77.66441715,6.86
152281870335,-0.1610382,-2.3572297,9.50547,0.0042648315,0.13570252,0.008007812,12.85567036,77.66441715,6.86
152281870356,0.03122406,-2.3519638,9.822639,-0.0011138916,0.113105774,-0.13040467,12.85567036,77.66441715,6.86
152281870377,-0.039601136,-2.4098725,9.7897415,0.042503357,0.025509644,-0.21091767,12.85572253,77.66438167,6.43
152281870399,-0.1149765,-2.3725433,9.808528,-0.016871642,-0.0701355,-0.22326049,12.85572253,77.66438167,6.43
152281870420,-0.505246,-2.1221344,9.737455,0.032603454,-0.12951049,-0.15850525,12.85572253,77.66438167,6.43
152281870441,-0.752063,-2.3921647,9.817494,0.010250854,-0.074653625,-0.009700012,12.85572253,77.66438167,6.43
152281870462,-0.3007782,-2.2635484,9.651556,-0.010766601,0.03625946,0.05345001,12.85572253,77.66438167,6.43
152281870484,0.25076446,-2.8324447,9.7484665,0.011711121,0.046403505,-0.06638489,12.85576296,77.66434011,5.23
152281870505,-0.15673065,-2.4695725,9.966092,0.0037765503,-0.0020996095,-0.1570404,12.85576296,77.66434011,5.23
152281870526,-0.6337387,-2.960341,9.679552,0.032237243,-0.038987733,-0.14274292,12.85576296,77.66434011,5.23
152281870548,-0.340979,-2.9799607,9.828981,0.027470399,-0.07172394,-0.11427917,12.85576296,77.66434011,5.23
152281870569,-0.4626541,-2.8471603,9.637556,-0.0083206175,-0.07062378,-0.054782104,12.85578878,77.66432278,3.6
152281870590,-0.4449463,-3.0446854,9.842024,0.008415222,-0.046313476,0.018515015,12.85578878,77.66432278,3.6
152281870611,-0.42759857,-3.8218765,9.223837,-0.008808899,-0.030186463,0.053082276,12.85578878,77.66432278,3.6
152281870632,-0.15625152,-3.723175,9.79584,-0.008930969,-0.036175538,0.035971068,12.85578878,77.66432278,3.6
152281870653,-0.06604157,-3.6645477,9.845015,-0.007829284,-0.05315399,0.035124205,12.85578878,77.66432278,3.6
152281870675,0.30173188,-3.5403595,9.574864,1.0681152E-4,-0.060847472,0.01265564,12.85580649,77.66431373,1.76
152281870696,0.25112763,-1.0594803,9.586589,0.046411134,0.0074295043,-0.010311889,12.85580649,77.66431373,1.76
152281870717,0.17515258,-0.97513425,9.936183,0.0040161135,0.0325943,0.0017807006,12.85580649,77.66431373,1.76
152281870738,-1.2207031E-4,-0.83479613,9.794886,0.0016952514,0.06716766,0.0018997192,12.85580649,77.66431373,1.76
152281870760,-0.18795776,-0.813739,9.632892,-0.0022155761,0.051042177,-0.0015182495,12.85580649,77.66431373,1.76
152281870781,-0.24813843,-1.1328217,9.951975,-0.006489563,0.02966156,-0.010432434,12.85580468,77.66431001,0.0
152281870802,-0.25531465,-0.9652039,9.462164,-0.028352356,0.0055999756,-0.009091186,12.85580468,77.66431001,0.0
152281870823,-0.37603456,-1.175415,10.209683,-0.023347473,5.8898923E-4,0.0060546873,12.85580468,77.66431001,0.0
152281870845,-0.28163606,-0.9915253,9.6695,-0.0016021729,-0.008569336,-0.0031051636,12.85580468,77.66431001,0.0
152281870867,-0.21332093,-1.1507705,9.776102,3.5400392E-4,-0.007958984,-0.002127075,12.85580257,77.66431499,0.0
152281870887,-0.25770873,-1.1364105,9.806012,0.0013320923,0.010238647,-0.0014007569,12.85580257,77.66431499,0.0
152281870908,-0.28929442,-1.169191,9.739491,-6.240845E-4,0.014642334,-5.3863524E-4,12.85580257,77.66431499,0.0
152281870930,-0.35713044,-1.2090317,9.889519,0.0027923584,0.017814636,-5.447388E-4,12.85580257,77.66431499,0.0
152281870951,-0.42484742,-0.98147583,9.827665,-6.271362E-4,0.017938232,-0.0012710572,12.85580257,77.66431499,0.0
152281870972,-0.36957398,-1.0138977,9.735062,-9.902954E-4,0.0065704347,-0.001638794,12.85580574,77.66431498,0.0
152281870994,-0.5082382,-1.0189224,9.791417,-1.3427735E-4,0.0038864135,-0.0017623901,12.85580574,77.66431498,0.0
152281871015,-0.41180724,-1.0895112,9.726689,-5.0354004E-4,-0.01076355,-0.0035919189,12.85580574,77.66431498,0.0
152281871036,-0.3427704,-1.1824722,9.792372,2.3193359E-4,-0.011131287,-0.0023742677,12.85580574,77.66431498,0.0
152281871057,-0.3652649,-1.3146775,9.826947,2.3040772E-4,-0.0039245607,-0.0023712157,12.85580574,77.66431498,0.0
152281871078,-0.37675017,-1.1109283,9.852551,-5.0354004E-4,-0.0068572997,-0.002368164,12.85580393,77.66431869,0.0
152281871100,-0.3652649,-1.0095917,9.7972765,1.0986328E-4,-0.006375122,-0.0022506714,12.85580393,77.66431869,0.0
152281871121,-0.39673156,-1.0940597,9.727285,5.950928E-4,-0.0022232055,-0.0016418457,12.85580393,77.66431869,0.0
152281871142,-0.3261444,-1.1274383,9.82312,-7.461548E-4,0.0046173097,-0.001397705,12.85580393,77.66431869,0.0
152281871163,-0.3564102,-1.1933609,9.8538685,-1.6784668E-5,0.0018112182,-0.001638794,12.85580393,77.66431869,0.0
152281871185,-0.367778,-1.0846069,9.80027,-2.5787353E-4,-6.286621E-4,-0.0015182495,12.85580511,77.66431633,0.0
152281871206,-0.42843628,-1.0014572,9.783521,7.2021486E-4,0.0068161013,-0.0015213012,12.85580511,77.66431633,0.0
152281871227,-0.45942384,-1.0241883,9.791414,-8.69751E-4,0.0042495728,-0.001638794,12.85580511,77.66431633,0.0
152281871248,-0.38476866,-1.027182,9.768565,-9.933471E-4,-0.0035629272,-0.002130127,12.85580511,77.66431633,0.0
152281871270,-0.38094178,-1.3237686,9.80398,-2.5787353E-4,-0.0033218383,3.1433106E-4,12.8558048,77.66431719,0.0
152281871291,-0.39912567,-1.1471802,9.825154,1.0986328E-4,0.0037658692,-0.0024917603,12.8558048,77.66431719,0.0
152281871312,-0.31214446,-1.1792419,9.847766,0.0014541626,0.0033966065,-5.340576E-4,12.8558048,77.66431719,0.0
152281871333,-0.52247465,-0.9912842,9.831136,-7.446289E-4,0.004623413,-0.0016418457,12.8558048,77.66431719,0.0
152281871355,-0.42520753,-0.9866196,9.748346,-1.373291E-5,-0.013571167,-0.002862549,12.8558048,77.66431719,0.0
152281871376,-0.41623384,-1.1092498,9.733511,-7.461548E-4,-0.019192506,-0.002862549,12.85580442,77.66431587,0.0
152281871397,-0.41922608,-1.1213348,9.768924,2.2888184E-4,-0.0019744872,-0.0021240234,12.85580442,77.66431587,0.0
152281871418,-0.33679047,-1.2207596,9.754921,1.0681152E-4,-0.003927612,-0.002003479,12.85580442,77.66431587,0.0
152281871440,-0.3781891,-1.070369,9.876242,-1.3885499E-4,-0.01162262,-0.002494812,12.85580442,77.66431587,0.0
152281871461,-0.38716125,-0.8827728,9.777895,-2.5787353E-4,-0.003805542,-0.0017623901,12.85580442,77.66431587,0.0
152281871482,-0.34767762,-1.0293305,9.733269,-3.768921E-4,-0.007832336,-0.0012741089,12.85580569,77.66431737,0.0
152281871503,-0.31370085,-1.1799606,9.840709,-0.0012359619,-0.010034179,-0.003100586,12.85580569,77.66431737,0.0
152281871525,-0.27158815,-1.1662018,9.722023,9.643555E-4,-0.0072250366,-0.0032302856,12.85580569,77.66431737,0.0
152281871546,-0.34767914,-1.1163132,9.858534,-3.7994384E-4,-0.006497192,-0.0022476197,12.85580569,77.66431737,0.0
152281871567,-0.28462678,-0.98937225,9.781725,-3.768921E-4,-9.94873E-4,-0.003227234,12.85580968,77.66431599,0.0
152281871588,-0.2848648,-0.9394806,9.715681,-1.373291E-4,-0.0022232055,-0.002127075,12.85580968,77.66431599,0.0
152281871610,-0.3488739,-1.1417968,9.821325,-1.3427735E-4,-0.008079529,-0.00262146,12.85580968,77.66431599,0.0
152281871631,-0.27290192,-1.1423935,9.676201,-7.4768066E-4,-0.0022201538,-0.0015213012,12.85580968,77.66431599,0.0
152281871652,-0.2979065,-1.1852249,9.865355,-6.240845E-4,4.6844484E-4,-0.0024887086,12.85580968,77.66431599,0.0
