timestamp,accx,accy,accz,gyrx,gyry,gyrz,latitude,longitude,speed
152282001593,-0.56506807,-1.0537384,9.910581,-0.02172699,-0.02099762,-0.0020507812,12.878139,77.64589088,0.0
152282001614,-0.34348908,-1.033519,9.691752,-1.0986328E-4,-0.011096192,-0.0021713257,12.87814271,77.64588846,0.0
152282001636,-0.57009125,-1.1327041,9.882463,0.009056091,0.019308472,0.007234192,12.87814271,77.64588846,0.0
152282001656,-0.37160644,-1.1560303,9.716398,1.2207031E-5,0.020161439,0.0010025024,12.87814271,77.64588846,0.0
152282001678,-0.55370027,-1.2152557,9.849681,-1.0375977E-4,0.021873474,0.008087158,12.87814271,77.64588846,0.0
152282001699,0.05192261,-1.2175262,9.939052,0.014552307,-0.022344971,-0.06252594,12.8781464,77.64588694,0.0
152282001720,-0.48371124,-0.91818696,9.632174,0.010891723,-0.062164307,-0.1415741,12.8781464,77.64588694,0.0
152282001741,-0.4857437,-1.3401597,9.822762,-0.0013275146,-0.07365112,-0.12568817,12.8781464,77.64588694,0.0
152282001763,-0.21152954,-0.9494141,9.752295,-7.171631E-4,-0.040298462,-0.06704712,12.8781464,77.64588694,0.0
152282001784,-0.34193572,-1.006839,9.872175,-0.0051132203,-0.040298462,-0.0112167355,12.8781464,77.64588694,0.0
152282001805,0.23198548,-1.4022522,9.7097,0.005509949,-0.085012816,-0.0033996582,12.87814946,77.64588631,0.0
152282001826,0.3690918,-0.9811157,9.662804,-0.005722046,-0.024169922,0.0010025024,12.87814946,77.64588631,0.0
152282001848,0.23377685,-1.2144196,9.916202,-3.5247803E-4,0.023583984,5.1116943E-4,12.87814946,77.64588631,0.0
152282001869,0.06412659,-0.90047914,9.731235,-0.0013275146,0.04471741,-0.002053833,12.87814946,77.64588631,0.0
152282001890,0.14392853,-1.2798599,9.762939,0.004170227,0.054251097,0.004663086,12.87814946,77.64588631,0.0
152282001911,-0.122990415,-1.0329208,9.757436,-0.0030395507,0.03995361,0.0022232055,12.87815103,77.64588689,0.0
152282001932,-0.20769806,-1.043808,9.807686,-0.0031600953,0.004159546,-0.020376587,12.87815103,77.64588689,0.0
152282001954,-0.16331176,-1.2339172,9.862002,-0.0038909912,-0.0114685055,-0.025387574,12.87815103,77.64588689,0.0
152282001975,-0.15266266,-1.020958,9.814985,-0.0012039185,0.0013473511,-0.004740906,12.87815103,77.64588689,0.0
152282001996,-0.019145202,-0.99762726,9.93355,-2.2735595E-4,0.003921509,-0.0014450073,12.87815273,77.64588649,0.0
152282002017,-0.48131865,-0.89593047,9.861046,0.0014816284,0.009660339,-2.243042E-4,12.87815273,77.64588649,0.0
152282002039,0.055152893,-0.14482574,10.496103,0.0028259277,0.026515197,-0.014390564,12.87815273,77.64588649,0.0
152282002060,0.06304932,-0.13094787,9.940964,0.0058792112,0.05339203,-0.06521454,12.87815273,77.64588649,0.0
152282002081,-0.044866942,-0.09589233,9.724658,0.005758667,0.08613129,-0.13265228,12.87815273,77.64588649,0.0
152282002102,-0.17934418,-0.14386901,10.029741,0.018341064,0.06463013,-0.21951905,12.87815353,77.64588614,0.0
152282002124,-0.21726838,-0.03080902,9.637077,-0.0044967653,0.027856445,-0.28134155,12.87815353,77.64588614,0.0
152282002146,-0.5804993,0.023391724,9.105032,0.0213974,-0.038586427,-0.22403565,12.87815353,77.64588614,0.0
152282002166,-1.0790482,0.31794587,9.769163,0.035812378,-0.077926636,-0.092092894,12.87815353,77.64588614,0.0
152282002188,-0.5929443,0.694339,10.455183,0.03581085,-0.06949463,-0.013293457,12.87815353,77.64588614,0.0
152282002209,-0.2579468,0.5388031,9.734705,0.02041931,-0.0958847,0.06072693,12.8781539,77.64588599,0.0
152282002230,-0.9328415,0.16695556,10.030574,-0.42451325,-0.14512023,0.12877807,12.8781539,77.64588599,0.0
152282002251,-1.1364731,0.18083802,12.157797,0.32169646,-0.013186646,0.4105011,12.8781539,77.64588599,0.0
152282002272,-0.08805847,0.17569122,4.6670637,0.38424987,0.08051453,0.41417542,12.8781539,77.64588599,0.0
152282002294,0.546759,-2.35699,13.107748,-0.3526825,0.050097656,0.10789032,12.8781539,77.64588599,0.0
152282002315,-0.5120621,2.106584,7.4341264,-0.17248383,0.01014862,0.05339966,12.87815407,77.64588616,0.0
152282002336,0.2305481,0.1049881,11.571077,0.29286194,0.0048965453,0.10007477,12.87815407,77.64588616,0.0
152282002357,0.21941833,1.0301712,12.189024,-0.25078583,0.0034255981,0.07660828,12.87815407,77.64588616,0.0
152282002379,-0.33092803,0.27272034,9.155164,0.06782226,-0.048977662,0.064517215,12.87815407,77.64588616,0.0
152282002400,-0.7021729,0.18095855,11.49666,0.0027130127,0.0073394775,0.09615936,12.87815461,77.64588612,0.0
152282002421,-0.54089814,0.22319183,8.592133,0.04107208,0.024932861,0.1545578,12.87815461,77.64588612,0.0
152282002443,-0.28474578,-0.16169281,10.609163,-0.17797546,0.018580627,0.08112793,12.87815461,77.64588612,0.0
152282002464,-0.28762206,0.5062607,8.909182,-0.040534973,0.04362335,0.09151459,12.87815461,77.64588612,0.0
152282002485,-0.3939789,-0.16815491,10.865552,0.12023163,0.039590456,0.06659393,12.87815461,77.64588612,0.0
152282002506,-0.3866806,-0.35132903,9.443617,-0.0048706057,0.077093504,0.058531187,12.8781485,77.6458868,0.0
152282002527,-0.330571,-0.17868347,10.0882435,0.04069977,0.068907164,0.026651,12.8781485,77.6458868,0.0
152282002549,-0.09463501,-0.36245424,10.30013,-0.018180847,0.033972166,-0.06387024,12.8781485,77.6458868,0.0
152282002570,-0.7356766,-1.2102295,11.708548,-0.017814636,-0.009150696,-0.03638153,12.8781485,77.6458868,0.0
152282002591,-0.44710082,-0.9756134,8.793848,-0.0175766,-0.030401612,-0.023553466,12.8781485,77.6458868,0.0
152282002613,-0.69176483,-1.3132432,8.235481,-0.11847992,-0.004508972,0.019198608,12.87815197,77.64584862,3.84
152282002634,-0.5898331,-0.49896088,11.305356,0.039605714,0.051683046,0.024694825,12.87815197,77.64584862,3.84
152282002655,-0.84610444,-1.2747147,10.190538,0.23739624,0.091386415,0.008573914,12.87815197,77.64584862,3.84
152282002676,-0.12538604,-1.7163117,9.168205,-0.08769379,0.10995941,-0.0517746,12.87815197,77.64584862,3.84
152282002697,0.26536256,-1.074675,9.319552,-0.065338135,-0.03529358,-0.20619965,12.878162,77.64579944,4.15
152282002719,-0.5170914,-1.0135391,11.172075,-0.05910797,-0.2107254,-0.23063812,12.878162,77.64579944,4.15
152282002740,-1.0381286,-1.0366318,9.83269,0.12255707,-0.22050019,0.0016082764,12.878162,77.64579944,4.15
152282002761,-0.98285216,-1.2093903,9.744039,-0.02758789,-0.0848877,0.2012268,12.878162,77.64579944,4.15
152282002782,-0.45726928,-0.9440277,9.534666,-0.022821045,0.06084595,0.2331131,12.878162,77.64579944,4.15
152282002804,-0.017228698,-1.1041107,8.51724,-0.021121215,0.09040985,0.100924686,12.87817765,77.64574894,4.63
152282002825,-0.38440856,-1.6572082,12.747625,0.19317779,0.011857605,0.032754518,12.87817765,77.64574894,4.63
152282002846,-0.026679993,-3.839824,9.337016,0.043028258,0.1452713,0.062075805,12.87817765,77.64574894,4.63
152282002867,-0.64103544,0.13046876,7.6646776,-0.24920197,0.14575958,0.16506195,12.87817765,77.64574894,4.63
152282002889,-1.142575,-0.42167512,9.9371395,0.16323395,0.23530884,0.070259094,12.87817765,77.64574894,4.63
152282002910,0.7899872,-0.6741165,11.238116,0.080775455,0.24886933,-0.18946381,12.87819189,77.64569503,4.67
152282002931,0.6352951,-0.9599396,9.456421,0.08871307,-0.14842224,-0.5713776,12.87819189,77.64569503,4.67
152282002952,-1.0064224,-0.64839476,7.1199465,-0.21291503,-0.3545212,-0.22257385,12.87819189,77.64569503,4.67
152282002974,-1.9042084,0.82462615,12.458934,0.42187804,-0.09906769,0.21588898,12.87819189,77.64569503,4.67
152282002996,-0.5130249,-3.0493515,10.580328,-0.04847412,-0.030776978,0.06537781,12.87820815,77.64564436,4.59
152282003016,-0.4598999,-0.9051453,8.176859,-0.10845642,-0.041404724,-0.012193298,12.87820815,77.64564436,4.59
152282003037,-0.21595307,-0.54370725,11.727568,0.05254822,-0.12422638,-0.013659668,12.87820815,77.64564436,4.59
152282003059,-0.7944199,-0.6537781,9.3170395,0.029704284,-0.119709775,0.10715027,12.87820815,77.64564436,4.59
152282003080,-0.8048264,-0.7331009,10.2662735,-0.007798767,-0.013302612,0.18901214,12.87820815,77.64564436,4.59
152282003101,-0.3104721,-0.5116455,9.386549,0.046070863,0.107514955,0.18570557,12.87825629,77.64554646,5.39
152282003122,0.0025131225,-0.6731613,10.059771,-0.012565613,0.14294434,0.08577728,12.87825629,77.64554646,5.39
152282003144,-0.4583481,-0.26602173,9.7375765,-0.0964859,0.085279845,-0.01109314,12.87825629,77.64554646,5.39
152282003165,-0.37794647,-0.86087954,9.567329,0.10190582,0.06585236,0.0056381226,12.87825629,77.64554646,5.39
152282003186,-0.659581,-1.0249069,10.705835,-0.123730466,0.014666748,-0.05067749,12.87825629,77.64554646,5.39
152282003207,-0.14345245,-1.1057816,8.837515,0.090177916,0.025540162,8.773804E-4,12.87827612,77.6454908,5.82
152282003229,-0.52761996,-1.7843857,10.3595915,-0.11542511,-0.006713867,-0.044935606,12.87827612,77.6454908,5.82
152282003250,-0.7971695,-0.80572355,9.13985,0.07063446,-0.026501466,-0.024040222,12.87827612,77.6454908,5.82
152282003271,-0.671785,-1.1055435,10.881111,0.013337707,-0.05605774,-0.002783203,12.87827612,77.6454908,5.82
152282003292,-1.0511719,-1.2134583,9.223478,-0.024047852,0.024806213,0.07953949,12.87827612,77.6454908,5.82
152282003313,-0.5365936,-1.4137405,9.539091,-0.048233032,0.15418243,0.08797302,12.87828859,77.64544014,5.71
152282003335,0.040678404,-0.8458023,10.479712,0.11571503,0.091999814,-0.12276001,12.87828859,77.64544014,5.71
152282003356,-0.64558566,-1.5345764,10.652834,0.007839966,-0.07731934,-0.19154052,12.87828859,77.64544014,5.71
152282003377,-0.6792053,-0.9559921,8.025152,-0.12763977,-0.116163634,-0.054707337,12.87828859,77.64544014,5.71
152282003398,-0.9929062,-1.7285141,14.422125,-0.03210602,-0.07829742,0.072583005,12.8783049,77.64537119,6.19
152282003420,-0.8930054,-2.488594,7.4928713,0.35884094,0.056573488,0.0051483153,12.8783049,77.64537119,6.19
152282003441,0.1065979,-0.010827636,8.083061,-0.34986418,0.06353302,-0.022705078,12.8783049,77.64537119,6.19
152282003462,0.05910187,-0.69948274,8.58639,0.108140565,0.084667966,-0.0154953,12.8783049,77.64537119,6.19
152282003484,0.045941163,-1.045964,9.446251,-0.052386474,0.021873474,-0.11322632,12.8783049,77.64537119,6.19
152282003505,-0.386084,-0.3558716,7.896062,-0.02184906,-0.01232605,-0.10247345,12.87831589,77.64534624,5.2
152282003526,0.3756714,-1.806401,11.159871,0.03264465,-0.090270996,-0.12006684,12.87831589,77.64534624,5.2
152282003548,-0.7531403,-0.44177398,8.938494,-0.1083374,-0.12068482,-0.03296051,12.87831589,77.64534624,5.2
152282003569,-0.7027725,0.09816589,10.448964,0.06501007,-0.10675659,0.02250061,12.87831589,77.64534624,5.2
152282003590,-1.1578872,-0.0934967,10.214945,0.06611176,-0.034684755,0.11057434,12.87831589,77.64534624,5.2
152282003611,-0.24215393,-0.7620529,9.435245,-0.08842163,0.049243163,0.101168826,12.87833838,77.64527683,5.77
152282003632,-0.7294525,-0.44919282,9.71963,0.15468597,0.06866302,0.056822203,12.87833838,77.64527683,5.77
152282003654,-0.08602295,-1.5011963,9.421125,-0.15243836,0.03396759,0.019444276,12.87833838,77.64527683,5.77
152282003675,-0.6364929,0.15176544,9.408445,0.06293945,-0.008660888,-0.024288941,12.87833838,77.64527683,5.77
152282003696,-1.0564331,-0.5379654,11.470221,0.055233765,-0.0525177,0.0016113281,12.8783558,77.64522528,6.08
152282003717,-0.95509493,-1.1720626,8.710101,-0.12568054,-0.03614807,0.06634827,12.8783558,77.64522528,6.08
152282003739,-0.7162918,-0.5347351,10.288526,0.031173706,0.0077056885,0.09542389,12.8783558,77.64522528,6.08
152282003760,-0.17348175,-1.8879974,8.667628,-0.024047852,0.10665741,0.0774643,12.8783558,77.64522528,6.08
152282003781,0.22564086,-0.5605774,9.813428,-0.032229614,0.14282227,0.022373963,12.8783558,77.64522528,6.08
152282003802,-0.5017761,-0.70426637,11.169085,0.035446167,0.04789734,-0.09759064,12.87837708,77.64516635,6.24
152282003824,-0.7487152,-0.8247467,10.509024,0.07649231,-0.057646178,-0.08732758,12.87837708,77.64516635,6.24
152282003817,-0.7062424,-0.91304016,8.20031,0.0031951903,-0.072554015,-0.0031555176,12.87837708,77.64516635,6.24
152282003838,-1.405304,0.43519592,10.510098,8.758545E-4,-0.0459198,0.022380065,12.87837708,77.64516635,6.24
152282003859,-0.7062424,-0.85764617,10.201902,0.016635131,0.033973694,0.043507386,12.87837708,77.64516635,6.24
152282003880,-0.53539735,0.034873962,11.653506,0.014561462,0.07074585,0.009185791,12.87838701,77.64511299,6.4
152282003902,-0.15158844,-0.29808348,10.825353,-0.043592833,0.013452148,-0.05250702,12.87838701,77.64511299,6.4
152282003923,-0.6446274,0.071725465,8.88609,0.10911407,-0.00524292,-0.031741332,12.87838701,77.64511299,6.4
152282003944,-0.8372513,-0.86291045,9.315363,-0.009020996,-0.004386902,-0.03149719,12.87838701,77.64511299,6.4
152282003966,-0.20841523,-0.31710815,10.682381,-0.03564606,-0.01085968,-0.04835663,12.87838701,77.64511299,6.4
152282003987,-0.9501923,-1.0934585,9.773588,0.04046173,-0.07108307,-0.057272337,12.8784074,77.64504306,6.61
152282004008,-0.69679105,-0.43471223,9.236641,-0.15219268,-0.083912656,3.9367675E-4,12.8784074,77.64504306,6.61
152282004029,-0.57906187,-0.4389023,9.489439,0.107888795,-0.0478775,0.0404541,12.8784074,77.64504306,6.61
152282004051,-0.48036042,-0.98410493,10.724497,-0.006208801,0.029078674,0.087117,12.8784074,77.64504306,6.61
152282004015,-0.10851593,-1.5868591,7.753807,-0.02783661,0.108372495,0.06390838,12.8784074,77.64504306,6.61
152282004036,0.44685823,-0.8203201,8.96517,-0.11261749,0.10360718,-0.034547426,12.87842268,77.64498483,6.69
152282004058,-0.4206604,-2.3496902,9.789263,0.028730774,-0.016116332,-0.09367828,12.87842268,77.64498483,6.69
152282004079,-0.6622162,-1.1490936,10.878954,-0.030032348,-0.07108917,-0.028317261,12.87842268,77.64498483,6.69
152282004100,-0.12861633,-1.343869,9.074285,0.12879029,-0.011355591,0.021157837,12.87842268,77.64498483,6.69
152282004121,-0.6831528,-0.9745377,10.170438,-0.05849304,0.026763916,0.0062530516,12.87843455,77.6449186,6.93
152282004143,-0.8758957,-1.3920853,10.665034,0.10019378,0.072697446,0.013951111,12.87843455,77.6449186,6.93
152282004164,-0.15457611,-0.9793228,10.200231,-0.09025421,0.010876465,-0.092337035,12.87843455,77.6449186,6.93
152282004185,-0.6201019,-1.2388245,9.479393,0.11326599,-0.07487182,-0.07572174,12.87843455,77.6449186,6.93
152282004206,0.014596557,-1.8056839,9.79644,-0.13056946,-0.12679443,-0.08134155,12.87843455,77.6449186,6.93
152282004228,-1.561438,-0.46977082,9.938695,-0.011219787,-0.15208587,0.011993408,12.87845476,77.64483729,7.47
152282004249,-0.86153716,-1.6367508,9.3302,-0.08109741,-0.02979889,0.14563599,12.87845476,77.64483729,7.47
152282004270,0.14440612,-1.1432297,8.520709,0.32193908,0.15369567,0.1651825,12.87845476,77.64483729,7.47
152282004292,-0.392305,-1.9502121,12.491359,-0.10345459,0.17287597,0.027752686,12.87845476,77.64483729,7.47
152282004313,-0.17144775,-1.261914,8.845533,-0.00181427,0.10873413,-0.08268432,12.8784736,77.64476487,7.49
152282004334,-0.6741791,-1.2657425,11.0685835,-0.13985443,-0.0023101806,-0.14328003,12.8784736,77.64476487,7.49
152282004355,-1.1471192,-0.6641876,10.498138,0.19121094,-0.082810976,-0.07999878,12.8784736,77.64476487,7.49
152282004377,-0.37244415,-1.4260604,9.898615,-0.08488464,-0.04311218,-0.0147598265,12.8784736,77.64476487,7.49
152282004398,-0.24000244,-0.67268217,9.954964,-0.058129884,0.027862549,0.014680481,12.8784736,77.64476487,7.49
152282004419,-0.73376006,-2.047957,10.484259,0.16861725,0.025665283,-0.042492677,12.8784959,77.64470361,7.26
152282004440,-0.29276428,-1.0903504,9.607524,-0.101011656,0.07452698,0.018832397,12.8784959,77.64470361,7.26
152282004461,0.17623138,-1.4478394,10.153688,0.03141327,0.045329284,-0.09967041,12.8784959,77.64470361,7.26
152282004483,-0.31010896,-1.0384247,9.862721,-0.008895874,-0.053004455,-0.11811371,12.8784959,77.64470361,7.26
152282004504,-0.6966736,-0.86781615,9.878275,0.044122316,-0.031015014,-0.02501831,12.8784959,77.64470361,7.26
152282004525,-0.56638336,-1.1191819,9.712094,-0.0060928343,0.008317566,-0.024409484,12.87852183,77.64464457,6.53
152282004547,-0.6011993,-1.0225128,9.674525,0.017973328,-0.0015808105,-0.06667938,12.87852183,77.64464457,6.53
152282004568,-0.20901641,-1.2925415,9.332472,-0.001083374,-0.060453795,-0.08085327,12.87852183,77.64464457,6.53
152282004589,-0.56937253,-1.1953919,10.58344,0.14100341,-0.11616516,-0.071322635,12.87852183,77.64464457,6.53
152282004610,-0.85435945,-2.254097,9.591138,-0.10137787,-0.066682436,0.06256409,12.87855074,77.64458734,6.41
152282004631,-0.6196243,-1.3978287,8.513407,-0.09331207,0.055226136,0.08723907,12.87855074,77.64458734,6.41
152282004653,-0.005505371,-1.5789658,11.50408,-0.098931886,-1.0681152E-4,-0.02942047,12.87855074,77.64458734,6.41
152282004674,-0.5769119,-1.448555,9.460132,0.1686142,-0.06681061,-0.013171387,12.87855074,77.64458734,6.41
152282004695,-1.275734,-1.0771897,8.828423,-0.28879243,0.0072219847,0.07917633,12.87855074,77.64458734,6.41
152282004716,-0.3153778,-1.1746979,7.6511536,0.08212586,0.102026366,0.005632019,12.87857842,77.64453791,6.13
152282004738,-0.6562332,-1.8993652,11.984795,0.2287262,-0.06339264,-0.028816223,12.87857842,77.64453791,6.13
152282004759,-0.7608002,-0.6605957,11.943878,0.23202057,-0.024784852,-0.031129455,12.87857842,77.64453791,6.13
152282004780,-0.26895753,0.11216126,10.451236,-0.0391922,-0.06485748,-0.0020553588,12.87857842,77.64453791,6.13
152282004801,-0.5102707,-0.0847641,9.778852,-0.070344545,0.032258607,0.063905336,12.87857842,77.64453791,6.13
152282004823,-0.57654876,-0.1222168,10.761945,-0.0773056,0.058531187,0.04448395,12.87859665,77.64448129,6.04
152282004844,-0.43764955,-0.2168518,9.384874,0.075517274,0.072085574,0.020295715,12.87859665,77.64448129,6.04
152282004865,-0.10420837,-0.5042267,10.48258,-0.027464295,0.109342955,-0.011338806,12.87859665,77.64448129,6.04
152282004886,-0.060780335,-0.58103484,8.875684,-0.01903839,0.027746582,-0.10308991,12.87859665,77.64448129,6.04
152282004908,-0.4770111,-0.20679931,9.822759,-0.06753387,-0.03138275,-0.08280945,12.87859665,77.64448129,6.04
152282004929,-0.49770814,-2.0021348,9.4872875,0.0483963,-0.0400589,-0.03907013,12.87861715,77.64443946,6.47
152282004950,-0.21870422,-0.9454651,8.907865,0.002706909,-0.03980255,-0.025752258,12.87861715,77.64443946,6.47
152282004971,-0.5542984,-1.2810577,9.9313965,0.059510805,-0.038711548,-0.029785156,12.87861715,77.64443946,6.47
152282004993,-0.42867738,-1.335852,9.555364,-0.052259825,-0.03247986,0.00393219,12.87861715,77.64443946,6.47
152282005014,-0.43035126,-1.7773285,9.730161,-0.020872498,0.02835083,0.045698546,12.87865001,77.64438256,6.85
152282005035,-0.35390168,-2.1334991,9.298732,0.035812378,0.013198853,-0.021229554,12.87865001,77.64438256,6.85
152282005056,-0.81870574,-1.4522644,10.061801,-0.0067016603,0.0031814575,-0.003277588,12.87865001,77.64438256,6.85
152282005078,-0.045585632,-2.1586213,9.812352,-0.06777954,0.03506775,7.5531006E-4,12.87865001,77.64438256,6.85
152282005099,-0.9501907,-1.662233,10.691953,0.08333435,-0.004626465,-0.042123415,12.87865001,77.64438256,6.85
152282005120,-0.8270798,-2.1803956,9.51959,0.055119324,-0.0045150756,0.0060043335,12.87867727,77.64433562,6.27
152282005141,-0.6166336,-2.0137405,9.670337,-0.13252258,0.054129027,0.01907959,12.87867727,77.64433562,6.27
152282005163,-0.3127411,-1.8853623,9.597954,0.043629456,0.009782409,-0.06680298,12.87867727,77.64433562,6.27
152282005184,-0.37998047,-1.356192,11.009006,0.06770019,-0.070230104,-0.120680235,12.87867727,77.64433562,6.27
152282005205,-0.41826782,-1.5824311,8.839908,-0.06582489,-0.15183869,-0.0663147,12.87867727,77.64433562,6.27
152282005226,-0.7249085,-0.8679382,10.961264,-0.07731171,-0.11421051,0.04070282,12.87870034,77.64428778,5.46
152282005248,-0.71366274,-1.7449067,8.855942,0.29701385,-0.026008606,0.15687867,12.87870034,77.64428778,5.46
152282005270,-0.53025055,-1.4666214,10.4809065,-0.2061905,0.038983155,0.15736695,12.87870034,77.64428778,5.46
152282005290,-0.5550171,-0.8002197,8.51987,0.023599243,0.07306214,0.1514984,12.87870034,77.64428778,5.46
152282005311,-0.0997818,-1.3782043,10.282064,-0.027098084,0.053761292,0.03996277,12.87871928,77.64424666,4.86
152282005333,-0.6496536,-1.1194214,9.1505,-0.15622711,0.027250672,0.026286315,12.87871928,77.64424666,4.86
152282005354,-0.6263229,-0.4001419,9.572472,0.21821594,0.021261597,0.024331665,12.87871928,77.64424666,4.86
152282005375,-0.18305206,-1.0823319,9.774309,-0.01439209,0.034457397,-0.0013183594,12.87871928,77.64424666,4.86
152282005396,-0.56769866,-0.34043884,10.031416,-0.042370606,0.064389035,0.00234375,12.87871928,77.64424666,4.86
152282005417,-0.5448456,-1.0494308,9.3765,0.0067367554,0.06903229,-0.031129455,12.87873876,77.64420568,4.91
152282005439,-0.31477508,-0.48603973,9.939291,0.013580322,0.04398346,-0.072302245,12.87873876,77.64420568,4.91
152282005460,-0.36478883,-0.9605392,9.33642,0.046684265,-0.009147644,-0.10528412,12.87873876,77.64420568,4.91
152282005481,-0.97447664,-0.52253115,11.014148,-0.024415588,-0.030650329,-0.07193146,12.87873876,77.64420568,4.91
152282005503,-0.35126647,-1.0100708,9.626909,0.003927612,-0.001210022,-0.0137817385,12.87873876,77.64420568,4.91
152282005524,-0.49878693,-1.0185639,10.049359,0.014189148,0.027856445,-0.03955841,12.87875182,77.64416869,5.25
152282005545,-0.5720062,-1.2996002,9.702402,0.023106385,0.019546509,-0.05593109,12.87875182,77.64416869,5.25
152282005566,-0.26428986,-1.3329818,9.595566,0.0038024902,0.015647888,-0.07413483,12.87875182,77.64416869,5.25
152282005587,-1.0382477,-1.0111496,9.954007,-0.010000611,0.031887818,-0.050556947,12.87875182,77.64416869,5.25
152282005609,-0.36742097,-1.1086533,9.712094,0.007835388,0.080638126,-0.059472658,12.87875182,77.64416869,5.25
152282005630,-0.16689758,-1.2687333,9.813312,-0.017326355,0.018336486,-0.17957,12.8787742,77.64413006,5.18
152282005651,-0.5928253,-1.1337769,9.455226,0.047787476,-0.097717285,-0.20522614,12.8787742,77.64413006,5.18
152282005673,-0.9653839,-1.2218384,10.045652,-0.038337708,-0.078660585,-0.04627838,12.8787742,77.64413006,5.18
152282005694,-0.6242874,-1.1292328,9.107069,0.004779053,0.0059906007,0.009918213,12.8787742,77.64413006,5.18
152282005715,-0.6344589,-1.1718247,10.174866,0.02090912,0.030426025,-0.018791199,12.87879965,77.64408961,4.96
152282005736,-0.3815384,-1.2952942,10.487127,0.08846893,0.098968506,-0.099911496,12.87879965,77.64408961,4.96
152282005757,-0.7077988,-1.0916672,9.867149,0.048880003,0.033236694,-0.08244018,12.87879965,77.64408961,4.96
152282005779,-0.35402068,-1.0718063,9.293111,0.009063721,0.043261718,-0.08244171,12.87879965,77.64408961,4.96
152282005800,-0.87086946,-1.043567,10.248202,-0.14303131,-0.10773468,-0.105041504,12.87879965,77.64408961,4.96
152282005821,-0.8076981,-0.35790557,9.229223,0.27258453,0.022369385,-0.018669128,12.87883533,77.64404442,5.09
152282005843,0.09918213,-2.2612762,10.01622,-0.2438263,-0.0101272585,-0.14902496,12.87883533,77.64404442,5.09
152282005864,-0.55274355,-0.27152556,8.649081,0.09360504,-0.10297241,-0.17468567,12.87883533,77.64404442,5.09
152282005885,-1.2436721,-1.9596618,10.308264,0.015661621,-0.130336,-0.018304443,12.87883533,77.64404442,5.09
152282005906,-0.8556763,-0.9025116,8.432413,-0.037113953,0.2046463,0.2801529,12.87883533,77.64404442,5.09
152282005928,0.11736755,-0.8818146,9.513252,0.116082765,0.06451416,-0.014271545,12.87886537,77.64401574,4.76
152282005949,-0.5446075,-1.0978851,10.343203,-0.15305023,0.014912414,-0.1415741,12.87886537,77.64401574,4.76
152282005970,-0.59294283,-0.9017929,9.409761,0.101054385,-0.036756895,-0.12691192,12.87886537,77.64401574,4.76
152282005991,-0.5742798,-1.2042481,11.061406,-0.023188781,-0.04762726,-0.12996522,12.87886537,77.64401574,4.76
152282006012,-0.6659256,-1.0999206,8.710335,0.015411377,-0.0051177978,-0.015979003,12.87886537,77.64401574,4.76
152282006034,-0.5905487,-1.395552,10.342842,-0.085861206,0.0031814575,-0.046765137,12.87889026,77.6439924,4.29
152282006055,-0.50273436,-1.300679,9.713051,-0.02917633,0.037510682,-0.021232605,12.87889026,77.6439924,4.29
152282006076,-0.2982666,-1.6585281,10.881105,0.05254822,0.045207214,-0.07364349,12.87889026,77.6439924,4.29
152282006098,-0.44423065,-1.3803589,9.610756,0.07148743,-0.029678345,-0.158432,12.87889026,77.6439924,4.29
152282006119,-0.51051176,-1.3920822,10.889723,0.030067444,-0.10211487,-0.14474487,12.87891738,77.64396721,4.18
152282006140,-0.5083542,-1.1981461,9.244774,-0.013905334,-0.1038269,-0.045422364,12.87891738,77.64396721,4.18
152282006161,-0.7189239,-1.5937989,9.37973,-0.026495362,-0.1019928,0.0101623535,12.87891738,77.64396721,4.18
152282006182,-1.1158966,-1.4873184,9.077159,-0.06386261,-0.068640135,0.12828979,12.87891738,77.64396721,4.18
152282006204,-0.6610214,-0.82797396,10.346669,0.067208864,-0.0014602661,0.18900757,12.87891738,77.64396721,4.18
152282006225,-0.13782501,-1.2566497,10.335423,-0.022091676,0.008802796,0.13293,12.87892918,77.64396365,3.19
152282006246,-0.6211807,-1.0319672,9.595802,0.015779113,-0.0014572144,0.11716919,12.87892918,77.64396365,3.19
152282006268,-0.6935608,-1.1440674,10.812075,0.01174469,0.02064972,0.12156983,12.87892918,77.64396365,3.19
152282006289,-0.7345978,-0.6603592,8.99939,0.068919376,0.029447937,0.13574067,12.87892918,77.64396365,3.19
152282006310,-0.57332003,-1.3308289,10.38902,-0.009266662,0.058036804,0.13036652,12.87895918,77.64392942,3.44
152282006331,-0.7064835,-0.20416717,8.426311,0.004664612,0.14843902,0.12840882,12.87895918,77.64392942,3.44
152282006352,0.174794,-1.0661834,10.652712,0.04607544,0.1557724,-0.023803711,12.87895918,77.64392942,3.44
152282006374,-0.25089112,-0.885286,9.32661,-0.101737976,0.100550845,-0.21817628,12.87895918,77.64392942,3.44
152282006395,-0.2924057,-1.133899,9.884735,0.03251343,0.016748047,-0.24468689,12.87895918,77.64392942,3.44
152282006416,-0.26536408,-0.91339874,9.086012,0.0022216798,-0.049342345,-0.30980378,12.8789744,77.64390947,2.46
152282006437,-0.28439027,-0.55854493,9.927208,0.055485535,-0.17529449,-0.3160324,12.8789744,77.64390947,2.46
152282006459,-0.799086,-0.67626953,9.337975,-0.03956146,-0.26203918,-0.16038665,12.8789744,77.64390947,2.46
152282006480,-1.5031707,-0.7990219,11.125175,-0.049577333,-0.1805481,0.1692154,12.8789744,77.64390947,2.46
152282006501,-0.9868027,-0.5568695,8.518437,-0.010852051,0.004284668,0.37238923,12.8789744,77.64390947,2.46
152282006522,0.22731629,-2.0950942,11.619055,-0.10198822,0.06524353,0.21001892,12.87899712,77.64388427,2.74
152282006544,-0.36191407,-0.33744812,8.758554,0.23519592,-0.009274292,-0.030158997,12.87899712,77.64388427,2.74
152282006565,-1.0733032,-2.98714,10.768522,0.020555114,-0.095890805,0.07075195,12.87899712,77.64388427,2.74
152282006586,-0.9220749,-0.31555328,7.996437,-0.018058777,-0.07780151,0.17581482,12.87899712,77.64388427,2.74
152282006608,-0.37782747,-1.0903488,10.156799,-0.0108474735,-0.005001831,0.25375977,12.87899712,77.64388427,2.74
152282006629,-0.5548996,-0.38805693,8.921504,-0.031744383,0.02468567,0.22468567,12.87901828,77.64387365,2.8
152282006650,-0.71198577,-1.0195221,10.254186,0.034719847,0.03311615,0.22150879,12.87901828,77.64387365,2.8
152282006671,-0.7133026,-1.2589233,9.756719,-0.064720154,0.06842041,0.2293274,12.87901828,77.64387365,2.8
152282006692,-0.47174376,-1.0225128,9.723101,0.038743593,0.14099121,0.22102204,12.87901828,77.64387365,2.8
152282006713,0.1639038,-1.1787643,9.6562195,-0.049087524,0.13182831,0.017361451,12.87905158,77.64382932,3.56
152282006735,-0.37531585,-1.1167892,10.096861,-0.049455263,0.0028167726,-0.114083864,12.87905158,77.64382932,3.56
152282006756,-0.98022,-0.88241273,10.182164,0.020054627,-0.030282592,-0.026119996,12.87905158,77.64382932,3.56
152282006778,-0.5269043,-0.72664034,10.8157835,0.048397828,0.011007691,0.06072693,12.87905158,77.64382932,3.56
152282006799,-0.6107712,-0.961734,9.898737,-0.014402771,0.056448363,0.07368012,12.87905158,77.64382932,3.56
152282006820,-0.4606201,-1.2231476,9.705991,-0.03589783,0.099328615,0.041671753,12.8790527,77.64382238,2.97
152282006841,-0.10097961,-1.0820954,9.852193,0.022006225,0.10616913,-0.079753116,12.8790527,77.64382238,2.97
152282006862,-0.35653228,-1.1884552,9.680748,0.048394777,0.021144103,-0.19887237,12.8790527,77.64382238,2.97
152282006883,-0.68973386,-0.8273773,9.680628,-0.024169922,-0.036390685,-0.188974,12.8790527,77.64382238,2.97
152282006905,-0.6105301,-0.9429504,9.909981,0.0331192,-0.084768675,-0.16087036,12.8790527,77.64382238,2.97
152282006926,-0.9105881,-1.3145554,10.056898,-0.005357361,-0.13070221,-0.096739195,12.87907412,77.64378738,3.59
152282006947,-0.8139206,-1.0337585,9.773706,-0.02758789,-0.11604309,0.019320678,12.87907412,77.64378738,3.59
152282006969,-0.8304306,-1.2664611,9.520429,0.06708679,-0.083666995,0.07563629,12.87907412,77.64378738,3.59
152282006990,-0.8239685,-1.8256652,9.803263,-0.040533446,-0.012210083,0.20452575,12.87907412,77.64378738,3.59
152282007012,-0.6987076,-1.5726227,9.186987,-0.015983582,0.10592499,0.235437,12.87909291,77.64375789,3.37
152282007032,0.23054656,-1.8064026,10.042063,0.002947998,0.108737186,0.06500854,12.87909291,77.64375789,3.37
152282007053,-0.22289276,-1.5502472,9.781006,-0.03577423,-0.008914185,-0.12984009,12.87909291,77.64375789,3.37
152282007075,-1.1480774,-1.9158738,9.904239,-0.116644286,-0.02564392,-0.013417053,12.87909291,77.64375789,3.37
152282007096,-0.78867495,-1.7246857,9.644136,-0.010609436,0.07453003,0.112895206,12.87909291,77.64375789,3.37
152282007117,-0.5400635,-1.4423325,10.964618,0.022006225,0.07416229,-0.0068237307,12.87911101,77.64372878,3.15
152282007139,0.0023925782,-0.76001894,9.42663,0.2494934,0.05559082,-0.08158417,12.87911101,77.64372878,3.15
152282007160,-0.5215195,-1.6962112,7.7621856,0.11168213,6.195068E-4,-0.23014984,12.87911101,77.64372878,3.15
152282007181,-0.25615388,-0.82091826,10.9136505,-0.287677,-0.037615966,-0.24762268,12.87911101,77.64372878,3.15
152282007202,-0.4076187,0.19052887,8.433607,0.26231843,-0.087825015,-0.22404175,12.87911101,77.64372878,3.15
152282007224,-0.5766708,-0.5019547,11.626829,-0.037113953,-0.19997558,-0.14425811,12.87912717,77.64370452,2.92
152282007245,-1.3379486,0.5940765,9.02272,-0.02355652,-0.10908051,0.16420288,12.87912717,77.64370452,2.92
152282007267,-0.135318,-1.0252655,9.274686,0.016148377,-0.067539975,0.2226059,12.87912717,77.64370452,2.92
152282007287,-0.11067047,-0.49489442,7.7199492,-0.06044922,-0.01159668,0.24692078,12.87912717,77.64370452,2.92
152282007309,-1.0433944,-0.20955352,10.110141,0.047174074,0.030307006,0.247406,12.87912717,77.64370452,2.92
152282007330,0.3930176,-0.2553726,8.399391,-0.05910492,0.072695926,0.17263488,12.87914181,77.64368681,2.27
152282007351,-0.26680145,-0.0607193,10.226671,0.034100343,0.058772277,0.11411438,12.87914181,77.64368681,2.27
152282007372,-0.2543579,-0.110249326,10.104517,-0.022094727,0.03922119,0.036421202,12.87914181,77.64368681,2.27
152282007393,-0.24179688,-0.28372955,9.505114,0.015284729,-0.006098938,0.011872863,12.87914181,77.64368681,2.27
152282007415,-0.9832123,0.06095581,10.265195,-0.026248168,-0.010617065,0.049734496,12.879153,77.6436631,3.47
152282007436,-0.9726837,-0.33074647,10.200231,-0.031619262,0.08772278,0.17605591,12.879153,77.6436631,3.47
152282007457,-0.01184845,-1.1203781,8.919708,0.018585205,0.1701889,0.05767517,12.879153,77.6436631,3.47
152282007478,-0.4173111,-0.2893509,10.869858,0.02836151,0.1501526,-0.07792053,12.879153,77.6436631,3.47
152282007500,-0.3024521,-0.782872,11.888962,-0.019526672,0.0023330688,-0.22758026,12.879153,77.6436631,3.47
152282007521,-1.1972488,-0.6099884,11.40346,0.0417984,-0.10712433,-0.1781021,12.8791655,77.6436308,4.26
152282007542,-1.074736,-0.2388626,9.728483,-0.05055847,-0.0688858,-0.022947693,12.8791655,77.6436308,4.26
152282007563,-0.19860534,-1.3858627,6.8920336,-0.18885192,-0.037739564,0.033244323,12.8791655,77.6436308,4.26
152282007585,-0.09403839,-0.988176,10.896779,0.2680603,0.013571167,-0.050683595,12.8791655,77.6436308,4.26
152282007606,0.7430893,-2.722252,10.936261,0.14699402,0.052052308,-0.048358154,12.8791655,77.6436308,4.26
152282007627,-0.9912262,-0.6992432,11.041066,-0.42439422,0.041670226,0.06623383,12.87918093,77.64359199,4.72
152282007648,-0.37459412,-0.2514267,11.829143,0.14271697,0.06097565,-0.03809204,12.87918093,77.64359199,4.72
152282007670,-0.26895446,-0.7202972,11.059729,0.028852845,-0.009519959,-0.12043762,12.87918093,77.64359199,4.72
152282007691,-1.0303528,-0.36101532,10.004376,0.07832947,-0.088069156,-0.09868927,12.87918093,77.64359199,4.72
152282007712,-0.6811188,-1.1256424,10.266029,-0.009265137,-0.09564056,-0.03467407,12.8791846,77.64353843,5.16
152282007733,-0.6776474,-0.9930786,9.398274,-0.03235321,-0.061190795,0.033366393,12.8791846,77.64353843,5.16
152282007755,-0.4482971,-1.6318436,9.017695,-0.0075561525,-0.020028686,0.10410003,12.8791846,77.64353843,5.16
152282007776,-0.0997818,-1.8236297,8.745752,0.0011199951,0.08051453,0.11790466,12.8791846,77.64353843,5.16
152282007797,-0.72550505,-0.93074644,9.939174,-0.03430481,0.124615476,0.033979796,12.8791846,77.64353843,5.16
152282007818,-0.579306,-1.035434,10.469542,0.04070282,0.061824035,-0.057762146,12.87921639,77.64348501,6.39
152282007840,-0.21439667,-1.7220551,9.86595,0.021640014,-0.052153014,-0.118356325,12.87921639,77.64348501,6.39
152282007861,-1.03741,-1.2531799,9.197878,-0.012562561,-0.049339294,-0.026733398,12.87921639,77.64348501,6.39
152282007882,-0.63625336,-1.1115265,9.7198715,0.0049011232,0.058033753,0.047898866,12.87921639,77.64348501,6.39
152282007903,-0.0177063,-1.2704102,10.05319,-0.016349792,0.051190186,-0.073280334,12.87921639,77.64348501,6.39
152282007925,-0.2543579,-1.6216736,9.781008,0.02248993,-0.10920258,-0.18604127,12.8792392,77.64343783,6.0
152282007946,-1.0110871,-2.2069595,9.609444,-0.034306336,-0.20473938,-0.07279358,12.8792392,77.64343783,6.0
152282007967,-1.2240524,-1.957988,9.672612,0.005024719,-0.07450561,0.19621582,12.8792392,77.64343783,6.0
152282007988,-0.64235383,-2.155513,9.95927,0.02029724,0.106170654,0.22577973,12.8792392,77.64343783,6.0
152282008010,0.1056427,-1.5445068,9.995522,0.015530395,0.14440918,0.05657501,12.87926567,77.64338972,5.99
152282008031,0.0047836304,-1.3155152,9.529284,0.009790039,0.025050353,-0.121046446,12.87926567,77.64338972,5.99
152282008052,-1.0110871,-1.4705719,10.187906,-0.24309388,-0.036387634,-0.032470703,12.87926567,77.64338972,5.99
152282008073,-0.050489806,-0.4401001,7.8433,0.5739838,3.768921E-4,-0.015734863,12.87926567,77.64338972,5.99
152282008095,-0.60478973,-3.5283966,10.862923,-0.6480942,0.0025741577,-0.006945801,12.87926567,77.64338972,5.99
152282008116,-0.37052765,-0.68213195,11.528244,0.329158,0.050463866,0.041915894,12.87927409,77.6433619,3.95
152282008137,0.020695496,-3.73358,9.734942,0.40343627,0.015647888,-0.097105406,12.87927409,77.6433619,3.95
152282008158,0.13579407,0.73585355,8.051353,-0.4674042,-0.13510437,-0.076948546,12.87927409,77.6433619,3.95
152282008180,-0.3164505,-0.3725006,8.932871,0.12988739,-0.054225158,-0.10919495,12.87927409,77.6433619,3.95
152282008201,-0.5523834,-0.81469727,11.388147,-0.03625946,-0.15623322,-0.0365036,12.87927409,77.6433619,3.95
152282008222,-0.6941589,-0.16659698,6.4469695,0.008448792,-0.086846925,0.16151886,12.87930223,77.64331763,4.41
152282008321,-0.832106,0.21457672,12.144519,0.03886261,-0.016235352,0.14233704,12.87930223,77.64331763,4.41
152282008342,-0.4304703,-0.67926484,7.620407,-0.057025146,0.04728241,0.1485672,12.87930223,77.64331763,4.41
152282008363,-0.17037049,-0.38063812,10.259569,0.037646484,0.053512573,0.0978714,12.87930223,77.64331763,4.41
152282008384,-0.34301147,-0.411026,9.5361,-0.033210754,0.052171327,0.04374542,12.87930223,77.64331763,4.41
152282008406,-0.48394927,0.20237274,10.101405,9.979248E-4,0.08271179,0.052052308,12.87932498,77.64327726,4.36
152282008427,-0.2757721,-0.012023926,10.268544,7.522583E-4,0.096760556,0.021032715,12.87932498,77.64327726,4.36
152282008448,-0.1676178,-0.14207307,10.08418,0.010281372,0.09700775,-0.037237547,12.87932498,77.64327726,4.36
152282008469,-0.1770691,-0.24520111,9.685771,0.013578797,0.037265014,-0.11909485,12.87932498,77.64327726,4.36
152282008490,-0.22349243,-0.23611145,9.8364,0.006248474,-0.06362915,-0.14548035,12.87935299,77.64322248,4.61
152282008512,-0.36275178,-1.366362,9.54878,-0.05067444,-0.14426574,-0.08818054,12.87935299,77.64322248,4.61
152282008533,-0.7696533,-0.7019943,8.620367,-0.01903839,-0.10260467,0.0483902,12.87935299,77.64322248,4.61
152282008554,-0.9253067,-1.115593,9.798833,0.0011169433,0.04276886,0.12120056,12.87935299,77.64322248,4.61
152282008575,-0.5753555,-1.2714859,10.060846,0.009545898,0.14343719,0.0807663,12.87935299,77.64322248,4.61
152282008597,-0.037089538,-1.3286759,9.483218,0.009664917,0.16187592,-0.02111206,12.87937737,77.64318354,5.09
152282008619,-0.18580627,-1.2365494,10.191376,0.017243957,0.099694826,-0.12935944,12.87937737,77.64318354,5.09
152282008639,-0.32937163,-1.2927811,9.5239,-0.007434082,0.027494812,-0.15647583,12.87937737,77.64318354,5.09
152282008660,-0.31357878,-1.072284,10.006409,0.04533844,-0.063755795,-0.19410706,12.87937737,77.64318354,5.09
152282008682,-0.33439788,-1.2773498,9.250875,0.016023254,-0.14414367,-0.14828949,12.87937737,77.64318354,5.09
152282008718,-0.5832504,-0.86111754,8.498576,0.013209534,-0.16540222,-0.06937103,12.8794009,77.64314465,5.54
152282008740,-0.7164154,-0.47335967,10.020529,-0.11005096,-0.17444305,-0.0014434814,12.8794009,77.64314465,5.54
152282008761,-0.10062103,0.2332428,9.091037,0.20416412,-0.13571472,0.034588624,12.8794009,77.64314465,5.54
152282008782,-0.3322479,-0.6117859,10.328005,-0.10198517,-0.17468567,0.054382324,12.8794009,77.64314465,5.54
152282008803,-0.49782714,-0.017767334,9.226947,0.027137756,-0.09392853,0.1682373,12.87942784,77.64309547,5.85
152282008825,-0.2585495,-0.4869995,10.824756,0.013822937,-0.04860382,0.20098266,12.87942784,77.64309547,5.85
152282008846,-0.13710937,-0.30980986,10.272731,5.0354004E-4,0.031037902,0.2161316,12.87942784,77.64309547,5.85
152282008868,-0.25435942,-0.8276184,9.72286,0.0227417,0.11313324,0.20721588,12.87942784,77.64309547,5.85
152282008888,-0.65300447,-0.35359803,9.475324,0.009181214,0.16713563,0.15272065,12.87942784,77.64309547,5.85
152282008910,0.15373841,-0.84400636,10.070659,0.023104858,0.1446518,0.068545535,12.87945087,77.6430318,6.35
152282008931,-0.28761902,-0.44775695,10.033809,-0.020622253,0.11081085,0.0082092285,12.87945087,77.6430318,6.35
152282008952,-0.2508896,-0.7018753,9.708982,0.015657043,0.06060486,-0.021965027,12.87945087,77.6430318,6.35
152282008973,-0.37172547,-0.44129792,9.7757435,-0.016348267,-0.0053665163,-0.039193727,12.87945087,77.6430318,6.35
152282008995,-0.51601255,-0.83850706,10.966532,0.009545898,-0.0597229,-0.025631715,12.87945087,77.6430318,6.35
152282009016,-0.26716003,-1.4385055,8.700769,-0.027713012,-0.032965086,0.0318985,12.87947951,77.64296771,7.15
152282009038,-0.28414917,-1.7523239,7.839708,-0.017938232,0.057911683,0.06451569,12.87947951,77.64296771,7.15
152282009058,-0.86500704,-1.2699311,10.140528,-0.005355835,0.10580139,0.025552368,12.87947951,77.64296771,7.15
152282009080,-0.06460724,-1.3695908,8.911455,0.028114319,0.09957428,-0.02514038,12.87947951,77.64296771,7.15
152282009101,-0.5571686,-1.1273178,10.639552,-4.7149658E-4,0.09065552,-0.051776122,12.87947951,77.64296771,7.15
152282009122,0.33248442,-1.3716263,9.455465,0.022862244,0.03604736,-0.12690887,12.87950584,77.64291419,7.29
152282009143,-0.7843689,-1.1807983,9.435483,-0.0020599365,-0.08708801,-0.15598603,12.87950584,77.64291419,7.29
152282009165,-0.7124664,-1.1874985,10.275961,0.011012268,-0.14817505,-0.07889557,12.87950584,77.64291419,7.29
152282009186,-1.1532242,-1.1731415,9.785194,-0.004017639,-0.07071686,0.040208437,12.87950584,77.64291419,7.29
152282009207,0.2009964,-1.2607177,9.390256,-0.001083374,0.050218202,0.061705016,12.87951897,77.64286064,6.92
152282009228,-0.8005203,-1.1464599,9.732074,0.016143799,0.08491211,-0.0033966065,12.87951897,77.64286064,6.92
152282009250,0.15469512,-1.0942962,10.79365,0.0055145263,0.007220459,-0.09648895,12.87951897,77.64286064,6.92
152282009271,-0.875177,-1.6064789,9.35999,-0.0025466918,-0.097839355,-0.08232117,12.87951897,77.64286064,6.92
152282009292,-0.8255264,-0.7476975,9.268942,-0.012687683,-0.09136353,-0.002784729,12.87951897,77.64286064,6.92
152282009313,-0.8995819,-1.0599594,11.78404,8.743286E-4,-0.037858583,0.05132141,12.87957171,77.64279677,6.92
152282009335,0.22049561,-1.204367,8.920908,7.5073243E-4,0.04447632,0.07502441,12.87957171,77.64279677,6.92
152282009316,-0.8244492,-0.9399597,10.1118145,0.005392456,0.101408385,0.037524413,12.87957171,77.64279677,6.92
152282009338,-0.017230224,-1.025264,9.384756,0.006245422,0.060969543,-0.0465271,12.87957171,77.64279677,6.92
152282009359,-0.21439973,-1.095134,9.792852,0.018463135,-0.03419342,-0.08952637,12.87957171,77.64279677,6.92
152282009380,-0.4161148,-1.2683761,11.147667,-0.035409547,-0.08122711,-0.04456787,12.87960513,77.6427434,6.85
152282009401,-0.24287263,-0.8407791,9.151215,0.023594666,-0.08049469,0.010159302,12.87960513,77.6427434,6.85
152282009423,-0.8350967,-1.4064407,8.125532,-0.026368713,-0.010003662,0.06561432,12.87960513,77.6427434,6.85
152282009444,-0.58241427,-0.928476,8.808566,0.016874695,0.08100434,0.07123413,12.87960513,77.6427434,6.85
152282009465,0.39218444,-1.1285156,9.959991,0.029211426,0.1135025,0.013945008,12.87964482,77.64268317,6.86
152282009486,-0.41958314,-1.5010773,10.156561,-0.025144959,0.049604796,-0.07743225,12.87964482,77.64268317,6.86
152282009507,-0.9598816,-1.3262818,11.295186,0.025547791,-0.08391571,-0.12569122,12.87964482,77.64268317,6.86
152282009529,-0.14811401,-1.0485932,9.484179,-0.03210907,-0.1792038,-0.06741486,12.87964482,77.64268317,6.86
152282009550,-1.0059448,-1.0996811,11.013072,0.0033172606,-0.13717803,0.08149719,12.87964482,77.64268317,6.86
152282009571,-0.6664032,-1.6458404,10.348465,-0.010487366,0.054859925,0.20403595,12.87968727,77.64261626,6.81
152282009593,-0.2788864,-1.7218139,9.944913,0.017240906,0.189859,0.1268219,12.87968727,77.64261626,6.81
152282009614,-0.46528625,-1.9433914,9.488843,0.0144317625,0.17409667,-0.02636261,12.87968727,77.64261626,6.81
152282009635,-0.43202513,-1.395552,9.986549,0.010523987,0.1346344,-0.072912596,12.87968727,77.64261626,6.81
152282009656,-0.26177827,-1.5210556,9.91596,0.027505493,0.08760071,-0.127034,12.87968727,77.64261626,6.81
152282009678,-0.07035065,-1.3102493,9.810918,0.022006225,0.016867066,-0.17100982,12.87972357,77.64254829,6.99
152282009699,-0.90831757,-1.3614578,9.7548065,0.028359985,-0.032118224,-0.14498901,12.87972357,77.64254829,6.99
152282009720,-0.8097305,-1.2163299,9.923022,0.002217102,-0.0024307251,-0.08964844,12.87972357,77.64254829,6.99
152282009741,-0.54676056,-1.0485947,10.266513,0.031903077,0.06438599,-0.049456786,12.87972357,77.64254829,6.99
152282009763,-0.76726073,-1.103151,10.286371,-0.0021835328,0.1459961,-0.077186584,12.87972357,77.64254829,6.99
152282009784,-0.26679993,-1.1784058,10.026988,0.039476015,0.13940278,-0.19789429,12.87974781,77.64251407,5.7
152282009805,-0.29826814,-1.2708862,9.9980345,0.07185211,0.06878815,-0.29013366,12.87974781,77.64251407,5.7
152282009826,-0.118206784,-1.5811173,9.2306595,0.04741516,-0.0307724,-0.33045197,12.87974781,77.64251407,5.7
152282009848,-0.51804656,-0.9771668,10.305392,0.04143219,-0.10749054,-0.28744507,12.87974781,77.64251407,5.7
152282009869,-0.85507506,-1.1934783,9.508466,0.04595337,-0.12471924,-0.20583649,12.87977832,77.64248005,5.32
152282009890,-1.0645691,-1.1882172,9.963819,-0.01965027,-0.036878966,-0.058618166,12.87977832,77.64248005,5.32
152282009911,-0.7343582,-1.154596,10.186232,0.026159668,0.1155777,-0.031614684,12.87977832,77.64248005,5.32
152282009933,0.092840575,-1.277826,9.669861,-0.003038025,0.17654419,-0.1638031,12.87977832,77.64248005,5.32
152282009954,0.21822052,-1.2023331,9.604773,0.053649902,0.024443055,-0.36526948,12.87977832,77.64248005,5.32
152282009975,-0.07597351,-0.56835634,9.98691,0.10251312,-0.19656067,-0.38494262,12.87982776,77.64245286,5.69
152282009996,-0.76331174,-0.556752,9.512053,0.02616272,-0.24933624,-0.15709075,12.87982776,77.64245286,5.69
152282010018,-1.2928436,-0.08488464,8.521902,0.056336977,-0.13400269,0.00954895,12.87982776,77.64245286,5.69
152282010039,-0.9282959,0.65282285,10.658575,-0.0898941,0.01539917,0.05572052,12.87982776,77.64245286,5.69
152282010060,-0.09128876,-0.20560303,10.746391,0.10154419,0.053883363,-0.039315797,12.87982776,77.64245286,5.69
152282010081,-0.7507507,-0.2094284,10.143282,-0.045788575,0.018577576,-0.07071228,12.87987745,77.6424316,5.73
152282010102,-0.7922653,-0.87367857,9.523539,0.02078705,-0.010734558,-0.05483093,12.87987745,77.6424316,5.73
152282010124,-0.43573302,-1.5480957,10.785515,-0.0078048706,-0.00756073,-0.059594728,12.87987745,77.6424316,5.73
152282010145,-0.89647067,-1.1660812,10.165293,9.94873E-4,-0.005369568,-0.03406372,12.87987745,77.6424316,5.73
152282010166,-0.4945984,-1.4255829,9.666989,0.017486572,0.051927187,-0.0075500486,12.87992485,77.64240411,5.85
152282010188,-0.5174484,-1.0854461,9.619252,-0.011346435,0.045332335,-0.072058104,12.87992485,77.64240411,5.85
152282010209,-0.13699035,-1.4200805,10.675682,-0.07034912,-0.05606537,-0.15512848,12.87992485,77.64240411,5.85
152282010230,-1.5315278,-0.4223938,6.3957596,0.0697876,-0.14646454,-0.11493988,12.87992485,77.64240411,5.85
152282010252,-0.014717102,-3.2703323,7.774985,0.06342773,0.0818634,-0.04725952,12.87992485,77.64240411,5.85
152282010272,-0.9141785,-1.128154,7.745192,0.0019775392,0.03898468,0.06622925,12.87996902,77.6423858,5.88
152282010294,-0.01005249,-0.72149354,10.542763,-0.07987366,0.006977844,-0.05104675,12.87996902,77.6423858,5.88
152282010315,-0.7533798,-0.9378067,9.503919,0.043144226,0.030426025,0.0075927735,12.87996902,77.6423858,5.88
152282010336,-0.17395934,-1.068814,10.109659,0.027877808,0.06646423,-0.013656616,12.87996902,77.6423858,5.88
152282010358,-0.42281342,-0.45218354,9.765813,-0.03161774,0.050216675,-0.075230405,12.87996902,77.6423858,5.88
152282010379,0.13950042,-1.5003617,9.273967,0.05939331,-0.017338563,-0.107608035,12.88000623,77.64238217,5.32
152282010400,-0.16247407,-0.9496521,8.75616,-0.008781433,-0.04787445,-0.07217865,12.88000623,77.64238217,5.32
152282010422,-1.0736634,-0.49417877,9.789502,0.06403351,-0.053125,-0.03870239,12.88000623,77.64238217,5.32
152282010442,0.081954956,-0.40504304,10.292354,-0.040899657,-0.04774475,-0.020014953,12.88000623,77.64238217,5.32
152282010464,-0.84299314,-0.04564514,10.038594,0.07405396,-0.05434723,-0.0040100096,12.88008938,77.64235733,5.44
152282010485,-0.9650253,-0.5268402,9.887846,-0.048840333,-0.046162415,0.013948059,12.88008938,77.64235733,5.44
152282010506,-1.5328445,-0.5231293,9.088405,-0.015010071,-0.023934936,0.04191742,12.88008938,77.64235733,5.44
152282010527,-0.85124815,-0.15355988,10.040988,-0.0068191527,-3.5705566E-4,0.027993774,12.88008938,77.64235733,5.44
152282010549,0.119400024,-0.5717041,10.320707,-3.4942626E-4,-0.014279175,0.026278686,12.88008938,77.64235733,5.44
152282010570,-0.8678757,-0.5718216,9.752292,0.030558776,-0.02111969,0.016021729,12.88013727,77.64234577,5.43
152282010591,-0.64498746,0.047200013,10.07281,-0.123240665,-0.055934142,0.028971862,12.88013727,77.64234577,5.43
152282010612,-0.48323518,-1.0983658,9.677518,0.0497406,-0.063267514,0.04313507,12.88013727,77.64234577,5.43
152282010634,-0.858905,-1.2401413,9.893827,-0.01891632,-0.017945861,0.10055542,12.88013727,77.64234577,5.43
152282010655,-0.40331116,-1.2646668,9.73255,-9.613037E-4,0.06047821,0.13562164,12.88013727,77.64234577,5.43
152282010676,0.21463318,-1.2731613,10.938655,-0.031866454,0.11007996,0.080639645,12.88022355,77.64231049,6.55
152282010698,-0.25770873,-1.5372101,9.788663,0.14296111,0.05620117,-0.009379578,12.88022355,77.64231049,6.55
152282010719,0.004664612,-1.0141373,9.4822645,-0.20020905,-0.009269714,-0.03137665,12.88022355,77.64231049,6.55
152282010740,0.1842453,-0.6242279,9.684932,0.15969238,-0.049343873,-0.029293824,12.88022355,77.64231049,6.55
152282010761,0.14811707,-1.0258621,9.957479,-0.049577333,-0.05215149,0.023104858,12.88022355,77.64231049,6.55
152282010782,-1.0937592,-0.7019928,9.706713,0.015653992,0.032258607,0.075387575,12.88028031,77.64229425,6.53
152282010804,-0.57823026,-1.1691926,9.861525,0.009181214,0.034701537,0.02628479,12.88028031,77.64229425,6.53
152282010825,-0.011247253,-0.77688754,9.675842,-0.06264801,0.013566589,0.012852478,12.88028031,77.64229425,6.53
152282010846,-1.0687561,-0.61872405,11.088568,0.08297272,0.018943787,0.0213974,12.88028031,77.64229425,6.53
152282010867,-0.6171112,-1.3872986,8.908106,-0.06863556,0.06951904,0.029212952,12.88034334,77.64226555,6.54
152282010889,-0.8066208,-0.25884095,10.874407,0.080285646,0.07440491,-0.014878845,12.88034334,77.64226555,6.54
152282010910,-0.92961276,-0.86925507,10.965815,-0.023434449,0.04544983,-0.06924744,12.88034334,77.64226555,6.54
152282010932,0.45954132,-0.9108871,8.092749,-0.04383545,0.0023284913,-0.06545868,12.88034334,77.64226555,6.54
152282010952,-0.16355133,-1.2911056,9.694509,0.05804596,-0.058743287,-0.105041504,12.88034334,77.64226555,6.54
152282010974,0.053598024,-1.33992,8.743001,0.109724425,-0.111645505,-0.060446166,12.88040245,77.64224175,6.5
152282010995,-0.5851654,-1.5667603,8.446289,-0.15146331,-0.10346069,0.021157837,12.88040245,77.64224175,6.5
152282011016,-0.54711914,0.09242096,9.7633,0.022990417,-0.024050903,0.069647215,12.88040245,77.64224175,6.5
152282011037,0.4302292,-1.1627305,9.844419,0.059152223,-0.0034088134,0.064395145,12.88040245,77.64224175,6.5
152282011058,-0.89240265,0.022195434,10.479353,-0.08195038,0.024803162,0.059994508,12.88040245,77.64224175,6.5
152282011080,-1.2278793,-0.5347351,9.900049,0.06513214,0.037390135,0.034461975,12.88044242,77.64222241,6.25
152282011101,-0.71677095,-0.7432693,9.230298,-0.008778381,0.038978577,0.0325119,12.88044242,77.64222241,6.25
152282011122,-0.21164551,-0.7911285,9.625235,-0.019039918,0.030914307,0.013340759,12.88044242,77.64222241,6.25
152282011144,0.12083588,-0.8087143,9.689362,0.010644531,0.034698486,0.009553527,12.88044242,77.64222241,6.25
152282011165,0.25818482,-0.863031,9.831734,-0.04286041,0.028352356,-0.0153686525,12.88048907,77.64220094,5.22
152282011186,0.12227325,-0.8358719,9.663401,0.024450684,-0.009397889,-0.037846375,12.88048907,77.64220094,5.22
152282011207,-0.7024139,-0.49226227,9.805415,0.038986206,-0.022341918,-0.018789673,12.88048907,77.64220094,5.22
152282011228,-1.1900727,-0.66466826,9.488124,-0.041760255,-0.03211365,-0.017445374,12.88048907,77.64220094,5.22
152282011250,-0.7561325,-0.18933105,9.745954,-0.045298766,-0.048361205,-0.008158875,12.88048907,77.64220094,5.22
152282011271,0.09152222,-0.87020874,9.926729,0.039111327,-0.04701233,0.007598877,12.88055266,77.64217969,5.88
152282011292,-1.1041702,-0.8655426,9.553331,-0.0432251,-0.0076843263,0.053762816,12.88055266,77.64217969,5.88
152282011313,-0.15230408,-0.6388229,9.701208,0.041064452,0.034945678,0.049978636,12.88055266,77.64217969,5.88
152282011335,-0.7357971,-0.76181185,9.5076275,-0.05128174,0.05559082,0.03531494,12.88055266,77.64217969,5.88
152282011356,-0.43585664,-0.30382997,9.60597,0.009423828,0.06560974,0.01626892,12.88055266,77.64217969,5.88
152282011377,-0.1170105,-0.88875425,10.054865,0.028359985,0.040560912,-0.028684998,12.88059636,77.64217037,5.53
152282011398,-0.5928238,-0.32548827,9.784595,-0.017941285,-0.018431092,-0.048110962,12.88059636,77.64217037,5.53
152282011420,-0.31812745,-0.82079774,10.252396,0.013702393,-0.092097476,-0.0609375,12.88059636,77.64217037,5.53
152282011441,-0.56985015,-0.58881533,10.083339,0.058534242,-0.14597626,-0.021722412,12.88059636,77.64217037,5.53
152282011462,-0.62105864,-0.42502442,9.906509,-0.08304749,-0.13632354,0.058042906,12.88059636,77.64217037,5.53
152282011483,-0.7514664,-0.65317994,9.190219,0.0020950318,-0.075726315,0.10067902,12.88068726,77.64212223,7.36
152282011505,-0.47091064,-0.8739212,9.892273,-0.019400025,0.03751831,0.15699768,12.88068726,77.64212223,7.36
152282011527,-0.58205414,-0.47706908,9.81678,0.07209625,0.120220944,0.11326142,12.88068726,77.64212223,7.36
152282011547,-0.25316316,-0.7484161,10.16984,-0.026126098,0.09358521,0.04081726,12.88068726,77.64212223,7.36
152282011568,-0.30771637,-0.6956528,9.442302,-0.02966919,0.045697022,0.004421997,12.88074023,77.64210315,6.99
152282011590,-0.10241394,-0.74937135,9.598436,0.002947998,0.0062347413,1.9836425E-5,12.88074023,77.64210315,6.99
152282011611,-0.7160538,-0.69972074,9.801107,0.009178162,-0.01244812,0.008695984,12.88074023,77.64210315,6.99
152282011632,-0.6166321,-0.5435883,9.617218,-0.033937074,-0.017333984,0.017980957,12.88074023,77.64210315,6.99
152282011653,-0.42293245,-0.6029297,10.008326,0.025302123,-0.020504761,0.018717956,12.88074023,77.64210315,6.99
152282011675,-0.46959227,-0.5057831,9.9638195,1.8310548E-5,-0.027467346,0.028848266,12.88080991,77.64207854,7.32
152282011696,-0.6227325,-0.6675354,9.667826,-0.052508544,-0.022828674,0.034953307,12.88080991,77.64207854,7.32
152282011717,-0.3940994,-0.7071411,9.862961,0.040942382,-0.019163514,0.02664795,12.88080991,77.64207854,7.32
152282011738,-0.5379089,-0.7973465,9.881025,-0.057392884,-0.017578125,0.051202394,12.88080991,77.64207854,7.32
152282011760,-0.50429076,-0.39726868,9.940129,0.035691835,0.011372375,0.06219635,12.88080991,77.64207854,7.32
152282011782,-0.53898466,-0.943071,9.9231415,-0.005718994,0.05705414,0.06720581,12.88084713,77.64206505,7.56
152282011802,-0.5637512,-0.37788695,9.729799,-0.0024230957,0.09089966,0.051080324,12.88084713,77.64206505,7.56
152282011824,-0.25615233,-0.811824,9.789861,0.027505493,0.09529571,-0.0030273437,12.88084713,77.64206505,7.56
152282011845,-0.19633178,-0.9232086,9.810799,-0.021484375,0.046917725,-0.0438324,12.88084713,77.64206505,7.56
152282011866,-0.27326354,-1.0171264,9.725372,0.012109375,-0.041888427,-0.08109741,12.88091059,77.64202857,8.14
152282011887,-0.4553543,-0.6871597,10.224756,0.008200074,-0.12776947,-0.05837097,12.88091059,77.64202857,8.14
152282011909,-1.1805007,-1.1328201,10.085492,0.0052688597,-0.13388062,0.038987733,12.88091059,77.64202857,8.14
152282011930,-1.0712662,-1.1754105,9.952814,-0.018553162,-0.023197938,0.09591369,12.88091059,77.64202857,8.14
152282011951,-0.13579407,-1.5381653,8.822922,-0.013420105,0.069885254,0.09090271,12.88091059,77.64202857,8.14
152282011972,-0.6496521,-0.66143495,10.51668,0.004412842,0.100796506,0.04802704,12.88097603,77.64199109,8.04
152282011994,-0.8097305,-1.995076,10.2494,-0.017575074,0.07514038,-0.01451416,12.88097603,77.64199109,8.04
152282012015,-0.4985489,-2.153003,9.530482,0.02078247,-0.01586914,-0.05153198,12.88097603,77.64199109,8.04
152282012036,-1.255516,-1.9095306,10.251676,-0.016227722,-0.05850067,-0.014273072,12.88097603,77.64199109,8.04
152282012057,-0.72909546,-0.735614,10.614545,-0.020135498,-0.01965332,0.032751463,12.88097603,77.64199109,8.04
152282012079,-0.343013,-1.9565506,8.942442,0.031047057,0.023464967,0.034953307,12.88103212,77.6419416,7.86
152282012100,-0.29766998,-2.0452056,9.837835,-0.035536192,0.03714447,0.027990723,12.88103212,77.6419416,7.86
152282012121,-0.65695035,-2.1721435,10.327525,0.01565094,0.020521546,-0.007913208,12.88103212,77.6419416,7.86
152282012142,0.08913116,-2.8305283,9.784597,0.029948425,-0.0037780763,-0.015000915,12.88103212,77.6419416,7.86
152282012163,-0.82564545,-2.4608383,10.014905,-0.018551636,0.004893494,0.0013687133,12.88108323,77.64189249,7.46
152282012185,-0.15637207,-2.7031112,10.088366,0.013206482,-0.026495362,-0.029788207,12.88108323,77.64189249,7.46
152282012206,-0.8522064,-2.5322633,9.663399,-0.008903503,-0.032478333,0.006742859,12.88108323,77.64189249,7.46
152282012227,-0.57942355,-1.734018,9.667826,-0.020753479,0.021504212,0.054988097,12.88108323,77.64189249,7.46
152282012248,-0.33463746,-1.425705,8.5902195,-7.1868894E-4,0.0792923,0.029458618,12.88108323,77.64189249,7.46
152282012270,-1.1749954,-1.9219726,16.163624,0.003199768,0.06940003,-0.048724364,12.88112909,77.64184681,6.68
152282012291,1.7883956,-3.8455658,7.502202,0.3253723,-0.07683716,-0.119953915,12.88112909,77.64184681,6.68
152282012312,-1.0913665,0.24352875,9.979014,-0.2546997,-0.20449677,0.012477112,12.88112909,77.64184681,6.68
152282012333,-0.59473723,-1.0069611,9.921705,0.13733521,-0.07499237,0.1234024,12.88112909,77.64184681,6.68
152282012355,-0.7206009,-0.8258209,10.139094,-0.07571411,-0.04335632,0.16909179,12.88112909,77.64184681,6.68
152282012376,-0.7858032,-0.77629393,9.651195,0.035206605,0.084179685,0.22859192,12.88117537,77.64182886,6.17
152282012397,0.13004608,-0.908255,10.172709,-0.012315368,0.084179685,0.0945694,12.88117537,77.64182886,6.17
152282012419,-0.4015152,-0.9375671,9.459892,-0.016474914,0.01820984,0.037763976,12.88117537,77.64182886,6.17
152282012440,-0.6063431,-0.9976257,10.253108,0.03336792,0.062431335,0.09774475,12.88117537,77.64182886,6.17
152282012461,-0.24227294,-1.039859,9.4250765,-0.034916688,0.10360412,0.046684265,12.88117537,77.64182886,6.17
152282012482,-0.30867463,-1.0135391,8.834885,0.003805542,0.064753726,-0.022946168,12.88121086,77.64178896,5.57
152282012503,-0.7235901,-1.120137,10.374547,-0.04908905,0.05669098,0.0057678223,12.88121086,77.64178896,5.57
152282012525,-0.87744904,-1.5244064,9.714604,-0.01903839,0.08039093,-0.0032714843,12.88121086,77.64178896,5.57
152282012546,0.09104462,-1.7383255,11.068705,0.038743593,0.09358673,-0.083172604,12.88121086,77.64178896,5.57
152282012567,-0.07262421,-1.2974503,10.278952,0.09482269,0.002455139,-0.21512756,12.88123625,77.64175814,5.01
152282012588,-0.4304703,-1.0168884,7.601265,0.4156479,-0.12032471,-0.20632172,12.88123625,77.64175814,5.01
152282012610,-0.3087967,-5.4661026,11.715006,-0.9994583,-0.08501892,-0.063137814,12.88123625,77.64175814,5.01
152282012631,-1.214119,1.3657653,4.868182,0.30752867,0.0045333863,0.07722473,12.88123625,77.64175814,5.01
152282012652,-0.25112763,-4.1846313,15.075846,0.2613495,-0.083918765,-0.1463379,12.88123625,77.64175814,5.01
152282012673,-0.71054995,-0.6718445,9.109222,-0.14486083,-0.15379182,-0.08720398,12.88126438,77.64174111,4.45
152282012695,-0.9095154,-0.42849427,10.29534,0.10410614,-0.14426574,0.018222045,12.88126438,77.64174111,4.45
152282012716,-0.7625946,-1.3764069,9.458214,-0.09966431,-0.07743683,0.19536133,12.88126438,77.64174111,4.45
152282012737,-0.472583,-0.28875428,9.879114,0.076496884,0.064144894,0.2316452,12.88126438,77.64174111,4.45
152282012758,-0.010169983,-1.528836,9.254468,0.063056946,0.14416504,0.1612732,12.88126438,77.64174111,4.45
152282012780,-0.5779861,-0.79100955,8.460048,-0.12030792,0.20292816,0.09016876,12.88129067,77.64172104,4.35
152282012801,-0.03529663,-0.20500183,9.688167,0.116572574,0.1968216,-0.0733963,12.88129067,77.64172104,4.35
152282012822,0.29299927,-0.37657166,9.995283,0.015658569,0.025544738,-0.28830108,12.88129067,77.64172104,4.35
152282012843,-0.04773865,-0.48113403,8.105792,0.0701416,-0.16283722,-0.24908447,12.88129067,77.64172104,4.35
152282012865,-0.6614975,-1.0753937,11.140965,-0.13227844,-0.16686706,-0.03907623,12.88133061,77.6416941,4.75
152282012886,-1.4183471,-0.23372193,9.556561,0.030801391,-0.034191895,0.113017276,12.88133061,77.6416941,4.75
152282012907,-0.86273193,-1.2954147,10.847727,-0.06545715,0.054248046,0.08064117,12.88133061,77.6416941,4.75
152282012929,-0.23222657,-1.2321228,10.225833,0.103860475,0.11777802,-0.018180847,12.88133061,77.6416941,4.75
152282012950,0.16785431,-1.6255035,10.459253,0.023600768,0.013941956,-0.13192292,12.88133061,77.6416941,4.75
152282012971,-0.84347075,-1.2899109,9.381045,-0.13325806,-0.10871277,-0.14621583,12.88137485,77.64167116,4.86
152282012992,-0.7439331,-2.0005784,7.3298006,-0.057275392,-0.049467467,0.077229306,12.88137485,77.64167116,4.86
152282013013,-0.41288298,0.36496735,12.40007,0.35334015,0.0024520874,-0.078294374,12.88137485,77.64167116,4.86
152282013035,-0.12670287,-3.1069,12.955208,-0.17687683,0.015530395,-0.140596,12.88137485,77.64167116,4.86
152282013056,-1.395015,0.03080597,9.624277,-0.030152893,-0.13326569,-0.0510437,12.88137485,77.64167116,4.86
152282013077,-1.7114685,-0.62398833,11.671817,0.014559937,-0.01257019,0.18436432,12.88142324,77.64164635,4.82
152282013098,-0.68075866,0.10498504,8.73702,-0.0834137,0.2255371,0.260112,12.88142324,77.64164635,4.82
152282013120,0.28043824,-0.23826599,11.475843,0.03361206,0.27318725,-0.036872864,12.88142324,77.64164635,4.82
152282013141,0.43501434,-0.65414125,9.168444,0.027749633,0.113623045,-0.2526245,12.88142324,77.64164635,4.82
152282013162,-0.50201416,-0.20261231,10.9773,0.09103241,-0.03199005,-0.26740876,12.88142324,77.64164635,4.82
152282013183,-0.7239502,-0.41293946,10.234564,-1.0375977E-4,-0.14891052,-0.23259278,12.88145544,77.64162937,4.89
152282013205,-0.91537476,-0.3932007,9.338099,0.03190155,-0.1882492,-0.10235596,12.88145544,77.64162937,4.89
152282013226,-0.30424803,-0.5212189,9.826831,-0.010243225,-0.14658356,-0.0037643432,12.88145544,77.64162937,4.89
152282013247,-0.35079193,-0.68309176,9.604535,-0.022950744,-0.1771286,-0.0240448,12.88145544,77.64162937,4.89
152282013268,-0.63828737,-0.75176394,9.984995,-0.02197113,-0.27939454,-0.017567445,12.88149372,77.64160811,4.88
152282013290,-0.604068,-1.1676362,9.891558,0.00868988,-0.301622,0.15687409,12.88149372,77.64160811,4.88
152282013311,-1.4478989,-1.2562927,10.512613,0.059027098,-0.12459564,0.40818328,12.88149372,77.64160811,4.88
152282013332,-0.8563919,-1.4539382,9.929242,0.06733246,0.17495117,0.5209503,12.88149372,77.64160811,4.88
152282013353,-0.27003175,-1.4156525,9.621167,0.010032654,0.3633438,0.37104493,12.88149372,77.64160811,4.88
152282013375,0.81858367,-1.1689545,10.063719,-0.015617371,0.31325227,0.07405243,12.88153319,77.64157943,5.15
152282013396,-0.2329422,-1.3268814,10.68609,0.024453735,0.09151306,-0.11359558,12.88153319,77.64157943,5.15
152282013417,-0.6381699,-1.3145568,10.090637,-0.004501343,0.010397339,-0.078652956,12.88153319,77.64157943,5.15
152282013438,-0.45188752,-1.5681976,9.245015,0.0079574585,-0.033573914,0.009185791,12.88153319,77.64157943,5.15
152282013460,-0.928418,-1.1697906,10.321785,-0.027960205,0.030422974,0.054499816,12.88153319,77.64157943,5.15
152282013481,-1.0392044,-0.79890597,9.557276,0.027383422,0.104580685,0.06402588,12.88156626,77.64153015,5.16
152282013502,-0.8806793,0.365802,10.445132,0.10007782,0.17324066,-0.03247528,12.88156626,77.64153015,5.16
152282013524,-0.17754821,-1.3758132,6.7540846,-0.056300353,0.14319153,-0.14963683,12.88156626,77.64153015,5.16
152282013545,0.20650025,0.6250656,10.681307,0.00869751,0.05596161,-0.25213927,12.88156626,77.64153015,5.16
152282013566,0.050367735,-0.90550387,10.940447,0.22958374,-0.08440552,-0.28109437,12.88160328,77.64150297,4.94
152282013587,-0.9540192,-0.31016845,9.340609,-0.19080047,-0.1931305,-0.14083862,12.88160328,77.64150297,4.94
152282013608,-0.6506103,-0.34235078,9.385351,0.23336487,-0.14866333,-0.044444274,12.88160328,77.64150297,4.94
152282013630,-1.2685578,-0.35742798,11.22687,-0.13081817,-0.119343564,0.0038085938,12.88160328,77.64150297,4.94
152282013651,-0.49543458,0.047317505,8.83716,0.01736908,-0.026374817,0.05657501,12.88160328,77.64150297,4.94
152282013672,-0.8181076,-0.536409,9.960945,-0.03675232,0.048876952,0.054374695,12.88164572,77.64147432,5.77
152282013693,-0.44602203,0.044923402,9.230181,-0.089157104,0.100430295,0.032269288,12.88164572,77.64147432,5.77
152282013715,-0.14393005,0.06502533,10.5436,0.18400879,0.072087094,-0.062037658,12.88164572,77.64147432,5.77
152282013736,-0.20458527,-0.50159454,9.341085,-0.1404663,-0.026132202,-0.087695315,12.88164572,77.64147432,5.77
152282013757,-0.84072113,0.15188293,9.662323,0.0822403,-0.07890014,-0.061669923,12.88164572,77.64147432,5.77
152282013778,-1.0555954,-0.047555543,10.247487,-0.08561859,-0.057768248,0.011257934,12.88169238,77.64144261,7.24
152282013800,-0.69009095,0.67866516,9.994206,0.08895874,0.022120666,0.05547638,12.88169238,77.64144261,7.24
152282013821,-0.715094,0.41054994,10.582962,-0.03882446,0.034701537,-0.012561035,12.88169238,77.64144261,7.24
152282013842,-0.5169708,-0.14578247,9.228383,0.0040512085,0.0077087404,-0.012678528,12.88169238,77.64144261,7.24
152282013863,-0.36514893,-1.002655,10.358994,-0.026608277,-0.040541075,-0.04041748,12.88176298,77.64141481,7.93
152282013885,-0.39039153,-0.9847061,8.528842,0.007958984,-0.12887421,-0.045301817,12.88176298,77.64141481,7.93
152282013906,-0.71485746,-1.5666428,10.873929,0.085539244,-0.13791046,0.04229126,12.88176298,77.64141481,7.93
152282013927,-0.83569336,-1.6904694,9.144875,-0.2438263,0.038247682,0.13280793,12.88176298,77.64141481,7.93
152282013948,-0.6482193,-0.9525223,10.81088,0.110580444,0.18350525,0.12254639,12.88176298,77.64141481,7.93
152282013970,-0.023330688,-2.1544373,10.123779,-0.007434082,0.09431915,-0.05995941,12.88182159,77.6413797,8.07
152282013991,-0.97806704,-2.3246872,9.553569,0.0067352294,-0.057768248,-0.08060608,12.88182159,77.6413797,8.07
152282014012,-0.87194365,-1.547136,10.819371,-0.041757204,-0.095516965,-0.0040115356,12.88182159,77.6413797,8.07
152282014033,-0.63744813,-1.7499298,8.992572,0.03556671,-0.003527832,0.08052063,12.88182159,77.6413797,8.07
152282014054,-0.7844879,-1.8779465,10.507464,-0.05531769,0.04435272,0.04558258,12.88182159,77.6413797,8.07
152282014076,-0.09188385,-1.7769684,9.265352,0.049864195,0.04740448,0.015411377,12.88188188,77.64134849,7.76
152282014097,-0.27194518,-1.4830109,10.713969,-0.020747375,0.00209198,-0.03174286,12.88188188,77.64134849,7.76
152282014119,-1.3971695,-1.6781464,9.707311,0.023474121,-0.06082306,-0.012559509,12.88188188,77.64134849,7.76
152282014139,-0.6672424,-2.4997222,9.635164,-0.070222475,0.008073425,0.08149719,12.88188188,77.64134849,7.76
152282014161,-1.161,-2.472444,8.567368,-0.003161621,0.13915253,0.110816956,12.88188188,77.64134849,7.76
152282014182,-0.3873993,-2.2629516,9.420047,0.03691406,0.08503266,-0.091481015,12.88194101,77.64131665,7.17
152282014204,0.34947053,-1.4426941,10.70775,0.063064575,-0.07731934,-0.14706573,12.88194101,77.64131665,7.17
152282014224,0.0019104003,-4.7017183,4.8005877,0.026292419,-0.14695588,-0.098565675,12.88194101,77.64131665,7.17
152282014246,-0.8786484,0.28588256,11.435763,-0.35195312,0.055238344,0.2873581,12.88194101,77.64131665,7.17
152282014267,0.04701996,-1.6174881,11.084856,0.19610444,0.17911378,0.04485779,12.88199405,77.64128628,6.4
152282014288,0.31417543,-1.0199997,10.001745,-0.098809816,0.054867554,-0.1451172,12.88199405,77.64128628,6.4
152282014309,-0.27146608,-1.4252259,9.795959,0.07478485,-0.23430939,-0.22953491,12.88199405,77.64128628,6.4
152282014330,-0.8604599,-0.935054,10.473013,-0.03931885,-0.36649475,-0.025881957,12.88199405,77.64128628,6.4
152282014352,-1.5043685,-1.0759919,9.774066,0.011380005,-0.13607483,0.29040986,12.88199405,77.64128628,6.4
152282014373,-1.3630737,-1.3433899,10.520268,0.04094391,0.18387298,0.38582763,12.88203526,77.64125441,5.99
152282014394,0.29922026,-1.2818924,9.677757,-0.03796997,0.32241517,0.18424225,12.88203526,77.64125441,5.99
152282014415,0.033021547,-1.458725,9.34982,0.005633545,0.23689118,-0.04689026,12.88203526,77.64125441,5.99
152282014437,-0.58743894,-0.62614137,9.792851,0.10886993,0.12998962,-0.13986054,12.88203526,77.64125441,5.99
152282014458,-0.095954895,-1.2578491,10.376819,-0.017320251,0.033239745,-0.18249969,12.88203526,77.64125441,5.99
152282014479,-0.9003006,-1.0867615,9.768443,0.062080383,-0.08733368,-0.18482056,12.88209279,77.64121935,6.2
152282014500,-0.33104858,-1.4338379,9.511215,-0.009260559,-0.097473145,-0.069488525,12.88209279,77.64121935,6.2
152282014522,-0.6179489,-1.2705276,8.692869,-0.009632873,-0.045921326,-0.0147598265,12.88209279,77.64121935,6.2
152282014543,-0.048934937,-0.9827927,10.159909,0.02298584,-0.091976926,-0.056541443,12.88209279,77.64121935,6.2
152282014564,-0.9754364,-1.0111481,8.864199,0.013943481,-0.070718385,0.004779053,12.88215345,77.64120359,6.1
152282014586,-0.36418915,-1.7026733,9.251355,-0.089035034,-0.006095886,0.06635132,12.88215345,77.64120359,6.1
152282014607,-0.38094026,-1.658403,9.545194,0.06794433,0.015037537,0.04826355,12.88215345,77.64120359,6.1
152282014628,-0.7212006,-2.1352952,9.927568,-0.05409851,0.06744232,0.06365814,12.88215345,77.64120359,6.1
152282014649,-0.30413055,-1.9273545,8.869342,-0.014274597,0.11411133,0.026042175,12.88215345,77.64120359,6.1
152282014670,0.018061828,-2.089473,10.548384,0.058047485,0.009783936,-0.16234283,12.88220564,77.64116455,6.17
152282014692,-1.0077393,-1.7066224,8.863121,-0.03174286,-0.09698181,-0.09832306,12.88220564,77.64116455,6.17
152282014713,-0.7201187,-1.4394608,12.0013075,0.0041763308,-0.045675658,0.039231874,12.88220564,77.64116455,6.17
152282014734,-0.33176574,-2.8521836,7.1234145,0.2851715,-0.034440614,-0.017941285,12.88220564,77.64116455,6.17
152282014755,-0.41407928,-1.2468399,12.14344,-0.57210237,0.100796506,-0.061793517,12.88220564,77.64116455,6.17
152282014777,-0.20674285,-1.5423539,8.608404,0.43934327,-0.08550568,-0.04445038,12.88225496,77.64113938,5.51
152282014798,-0.5216354,-1.6714462,11.665237,-0.17552948,-0.18628998,-0.042985536,12.88225496,77.64113938,5.51
152282014819,-0.91537476,-1.0865189,8.603975,0.043028258,-0.08733521,0.14539337,12.88225496,77.64113938,5.51
152282014840,-0.5803772,-1.4356339,10.559155,-0.024655152,0.012716675,0.20293121,12.88225496,77.64113938,5.51
152282014863,-0.49124604,-0.99044955,9.202782,-0.025021363,0.14599761,0.22077027,12.88225496,77.64113938,5.51
152282014883,0.083747864,-1.1506485,10.266993,0.0663559,0.18985291,0.06793823,12.88229613,77.64111125,5.18
152282014904,-0.097509764,-1.2795044,10.452072,-0.05641632,0.068171695,-0.11506195,12.88229613,77.64111125,5.18
152282014925,-0.4071396,-0.9616135,9.915364,0.08235779,-0.030770874,-0.1104187,12.88229613,77.64111125,5.18
152282014947,-0.41994172,-0.7618149,10.002223,-0.021357726,-0.075238034,-0.06240387,12.88229613,77.64111125,5.18
152282014968,-0.35677186,-0.9047867,10.185275,-0.006211853,-0.099307254,-0.027218629,12.8823313,77.64108056,5.26
152282014989,-0.862854,-1.5186646,10.179173,0.034590147,-0.09490814,0.052545168,12.8823313,77.64108056,5.26
152282015010,-0.7481171,-1.7916855,9.474844,-0.036021423,0.0020874024,0.14417115,12.8823313,77.64108056,5.26
152282015032,-0.2702713,-1.6295716,9.998634,-0.008653259,0.042150877,0.08442841,12.8823313,77.64108056,5.26
152282015053,-0.3394226,-2.2069595,9.468742,-0.012931824,-8.4533694E-4,0.012727356,12.8823313,77.64108056,5.26
152282015113,-0.54748076,-2.264386,10.032972,0.018215943,-0.032966614,0.014685059,12.88237183,77.6410566,5.06
152282015134,-0.7901123,-2.3347383,10.028064,6.30188E-4,-0.03529358,0.068547055,12.88237183,77.6410566,5.06
152282015156,-0.8252838,-2.2799392,9.812233,-0.033084106,0.019555664,0.1472229,12.88237183,77.6410566,5.06
152282015177,-0.2811554,-2.6637497,9.438954,-0.014273072,0.029570008,0.09896698,12.88237183,77.6410566,5.06
152282015198,-0.81212616,-2.233638,10.054744,0.009544373,0.0068511963,0.053398132,12.88237183,77.6410566,5.06
152282015219,-0.21068878,-2.0418563,10.280507,0.019932557,0.004042053,0.092004396,12.88240205,77.64103604,3.78
152282015241,-0.12131653,-1.6838882,10.344998,0.0417984,0.0023269653,0.04618988,12.88240205,77.64103604,3.78
152282015262,-0.20016328,-1.939682,10.270816,0.0014846802,-0.03321228,0.017372131,12.88240205,77.64103604,3.78
152282015283,-0.667482,-2.3992248,9.654307,-0.032598875,-0.047631837,0.062437437,12.88240205,77.64103604,3.78
152282015304,-0.4630127,-2.3691926,9.995402,0.05352936,-0.08672333,0.0840622,12.88242691,77.64100768,3.76
152282015325,-0.63506013,-2.1969101,9.922063,-0.0016967773,-0.0855011,0.16188201,12.88242691,77.64100768,3.76
152282015347,-0.7324432,-2.0241485,9.441467,-0.067042544,-0.07707367,0.2904129,12.88242691,77.64100768,3.76
152282015368,-0.6982269,-2.0300095,9.63696,-0.029426575,-0.0800003,0.3588272,12.88242691,77.64100768,3.76
152282015389,-0.90424806,-1.674675,10.13957,-0.05983887,-0.038713075,0.53341067,12.88242691,77.64100768,3.76
152282015410,-0.3811783,-1.5342194,9.674405,0.058903504,0.027374268,0.5965744,12.88245164,77.6409841,3.57
152282015432,0.098220825,-1.5309875,9.863798,0.021272277,-0.011221314,0.40818483,12.88245164,77.6409841,3.57
152282015453,-0.32865602,-1.3573868,9.115084,0.01907196,-0.0439621,0.3061737,12.88245164,77.6409841,3.57
152282015475,-0.55202484,-1.3835922,10.431618,0.015533447,-0.058013916,0.33097535,12.88245164,77.6409841,3.57
152282015496,-0.47413787,-1.3565521,9.675125,-0.056175232,-0.045550536,0.3764206,12.88245164,77.6409841,3.57
152282015517,-0.26883546,-1.4083573,9.11413,0.08956604,-0.024908448,0.41429597,12.88244684,77.64098607,2.04
152282015538,-0.52103883,-1.6007401,10.193888,-0.025390625,-0.04359894,0.36273804,12.88244684,77.64098607,2.04
152282015559,-0.7329208,-1.4352753,9.719988,-0.041143797,-0.010131836,0.4150284,12.88244684,77.64098607,2.04
152282015580,-0.54664004,-1.1720642,8.884775,3.845215E-4,0.046672057,0.47354585,12.88244684,77.64098607,2.04
152282015602,-0.5456848,-1.6196442,10.609639,-4.6539307E-4,0.076480106,0.3678711,12.88244684,77.64098607,2.04
152282015623,-0.32362977,-1.3244889,9.703117,0.024214173,0.08173523,0.26683503,12.88243486,77.64097777,1.61
152282015644,-0.005506897,-1.2037674,9.858297,0.19182435,0.06060333,0.02823944,12.88243486,77.64097777,1.61
152282015665,-0.056352235,-1.0965698,10.240786,0.003927612,0.019430542,0.02493744,12.88243486,77.64097777,1.61
152282015687,-0.59641266,-1.4840882,9.897898,-0.056175232,-0.0053649903,-0.038337708,12.88243486,77.64097777,1.61
152282015708,-0.2754135,-1.0714447,9.661604,0.07368469,0.009291077,-0.0075500486,12.88242831,77.64095879,2.12
152282015729,-0.7203598,-1.0314865,10.435682,0.009913635,-0.015625,-0.03882599,12.88242831,77.64095879,2.12
152282015751,-0.058624268,-1.2067597,9.362622,0.0018478393,-0.059965514,-0.032839965,12.88242831,77.64095879,2.12
152282015772,-1.2960739,-1.425943,10.102603,8.7280275E-4,-0.058258057,0.045954894,12.88242831,77.64095879,2.12
152282015793,-0.76618195,-1.6909485,9.649638,-0.0054779053,0.0055038454,0.19914703,12.88242831,77.64095879,2.12
152282015814,-0.47162628,-1.2952926,9.704437,0.02689209,0.054367065,0.19779968,12.88243991,77.64093653,2.26
152282015836,-0.29240417,-1.4804977,9.897777,-0.007923889,0.050340272,0.08980255,12.88243991,77.64093653,2.26
152282015857,-0.1521881,-1.3530807,9.787229,0.008566285,0.033355713,-0.006085205,12.88243991,77.64093653,2.26
152282015878,-0.7563721,-1.2194412,9.736261,0.0050231935,0.035313416,-0.04664459,12.88243991,77.64093653,2.26
152282015899,-0.10827637,-1.4881561,9.728365,-0.028569032,0.038856506,-0.06802521,12.88243991,77.64093653,2.26
152282015921,0.12251282,-1.3360932,9.857816,-0.021121215,-0.04372406,-0.22147217,12.88243908,77.64090929,2.24
152282015942,-0.88055724,-1.0453613,9.861406,-0.020877074,-0.112623595,-0.1942276,12.88243908,77.64090929,2.24
152282015963,-1.5525849,-1.226619,9.695462,-0.009024048,-0.057159424,0.1030014,12.88243908,77.64090929,2.24
152282015984,-0.8055466,-0.28121337,10.445135,-0.007557678,0.061332703,0.305072,12.88243908,77.64090929,2.24
152282016005,-0.39601287,-0.6064011,9.85925,0.04802704,0.12644807,0.24056396,12.88243558,77.64088444,2.01
152282016027,-0.026800537,-0.48747864,9.744037,8.7127683E-4,0.152594,0.050347902,12.88243558,77.64088444,2.01
152282016048,0.3214752,-0.14279175,10.185633,0.070877075,0.0824707,-0.23772278,12.88243558,77.64088444,2.01
152282016069,-0.29515687,0.03487549,10.035604,0.07734833,-0.049830627,-0.3751648,12.88243558,77.64088444,2.01
152282016090,-0.7530243,-0.55998385,9.535746,0.03618164,-0.11958466,-0.27608642,12.88243558,77.64088444,2.01
152282016112,-1.3714478,-0.047677614,9.410359,-0.0104904175,-0.06521759,-0.021479797,12.88242265,77.64085751,2.62
152282016133,-0.40989074,-0.68141633,9.014944,0.03141327,0.029202271,0.09395752,12.88242265,77.64085751,2.62
152282016154,-0.12000122,-0.40001982,10.387346,-0.022334289,0.043740846,-0.006089783,12.88242265,77.64085751,2.62
152282016175,-0.5301315,-0.26985168,9.702522,-0.0059661865,-0.02380829,-0.12728271,12.88242265,77.64085751,2.62
152282016197,-0.47605437,-0.70259094,9.01578,0.009181214,-0.069006346,-0.08623199,12.88242265,77.64085751,2.62
152282016218,-0.8262421,-0.5995804,10.573749,0.00771637,-0.026742553,0.042649843,12.88241222,77.64083404,2.76
152282016239,-0.4280777,-0.64289093,9.61626,0.021151733,0.0106369015,0.04155121,12.88241222,77.64083404,2.76
152282016260,-0.7543381,-0.7668396,9.95281,-0.042243958,-0.013053894,-0.022088623,12.88241222,77.64083404,2.76
152282016282,-0.37196654,-0.78107756,9.505473,-0.047624208,-0.014404297,0.009185791,12.88241222,77.64083404,2.76
152282016303,-0.71091,-1.0641464,10.06312,0.011621093,-0.005975342,0.021032715,12.88240346,77.64080853,3.23
152282016324,-0.45045012,-1.3549973,9.957837,0.0046554566,0.012831116,0.03360901,12.88240346,77.64080853,3.23
152282016345,-0.6312302,-1.3253235,9.99014,-0.05531769,0.030056763,0.026280213,12.88240346,77.64080853,3.23
152282016367,-0.3836914,-1.2994782,9.544716,0.02212677,0.020768737,-0.01744995,12.88240346,77.64080853,3.23
152282016388,-0.35904542,-1.1303085,10.434607,0.017366027,-0.0032836914,-0.054096986,12.88240346,77.64080853,3.23
152282016409,-0.38847655,-1.5981033,9.144873,-0.025758361,-0.024169922,-0.03772583,12.882393,77.64077713,3.52
152282016430,-0.6014374,-1.461235,9.930918,0.021273803,-0.03247986,-0.033328246,12.882393,77.64077713,3.52
152282016452,-0.69081116,-1.4858811,9.506909,-0.00181427,-0.02587738,0.019810487,12.882393,77.64077713,3.52
152282016473,-0.28486785,-1.8504303,10.08681,-0.037237547,-0.025151063,0.006375122,12.882393,77.64077713,3.52
152282016494,-0.8417953,-1.3479354,9.283419,0.027018737,-0.02502594,0.039718628,12.882393,77.64077713,3.52
152282016515,-0.4991455,-1.4924622,10.500766,0.016874695,-0.03211212,0.022253418,12.88238268,77.64074605,3.18
152282016537,-0.2160736,-1.4532226,9.961902,-0.017329406,-0.033331297,0.07343292,12.88238268,77.64074605,3.18
152282016558,-0.6132828,-1.6886749,9.613269,0.027140807,-0.016595459,0.08723755,12.88238268,77.64074605,3.18
152282016579,-0.7595993,-1.709732,9.16557,0.06672363,0.016986083,0.14441681,12.88238268,77.64074605,3.18
152282016601,0.0093307495,-1.4675766,9.636243,0.032025147,0.031158447,0.116802976,12.88238268,77.64074605,3.18
152282016622,0.019618224,-1.7606995,9.610639,-0.14022064,-0.027111817,-0.0030334473,12.88237167,77.64071825,3.13
152282016643,-0.60346985,-1.3058212,9.891316,-0.030398559,-0.08171234,-0.03968506,12.88237167,77.64071825,3.13
152282016664,-0.8240906,-1.3533218,9.487767,0.010397339,-0.08171234,0.14612731,12.88237167,77.64071825,3.13
152282016686,-0.87756956,-1.3243668,9.783162,0.049620055,0.005267334,0.3266983,12.88237167,77.64071825,3.13
152282016707,-0.41994324,-0.8132614,10.705592,-0.021357726,0.07868042,0.35528564,12.88235963,77.64069146,3.02
152282016728,0.23126373,-0.8743973,8.982523,0.050228883,0.06499634,0.19047394,12.88235963,77.64069146,3.02
152282016749,0.30723572,-0.4652237,9.984517,0.058656313,-0.02380829,-0.036628723,12.88235963,77.64069146,3.02
152282016770,-0.22959137,-0.6119064,10.245214,0.033493042,-0.16320343,-0.13961944,12.88235963,77.64069146,3.02
152282016792,-0.6979874,-0.2412552,8.704717,0.017366027,-0.25263673,-0.0015701294,12.88235963,77.64069146,3.02
152282016813,-1.2155548,-1.0317246,11.405136,-0.051408388,-0.24273224,0.3529602,12.88234433,77.64066727,2.96
152282016834,-1.4293549,-0.88444674,8.667267,0.06391601,-0.037124634,0.7716507,12.88234433,77.64066727,2.96
152282016855,-0.51804656,-1.1262436,9.633967,0.23605347,0.19217376,0.8012146,12.88234433,77.64066727,2.96
152282016877,1.3065994,-0.8481964,9.962021,-0.0978302,0.15870361,0.42040405,12.88234433,77.64066727,2.96
152282016898,0.41168365,0.40468597,9.614225,0.32377473,-0.017951965,0.11558533,12.88234433,77.64066727,2.96
152282016919,-0.32315367,-0.2169693,9.58324,-0.09906006,-0.13644867,0.11937256,12.88232544,77.64064692,3.16
152282016940,-0.9790268,-0.57996213,10.7331085,-0.2148697,-0.12056427,0.25510406,12.88232544,77.64064692,3.16
152282016961,-1.3208389,-0.5882141,8.922106,0.33049315,-0.0046325685,0.54685366,12.88232544,77.64064692,3.16
152282016983,-0.15314332,-0.97908324,11.51652,-0.006086731,0.087724306,0.5011551,12.88232544,77.64064692,3.16
152282017004,0.42903137,-0.17030945,8.90667,0.10899353,-2.3193359E-4,0.25888824,12.88230139,77.64063706,3.14
152282017025,-0.6486969,-1.2062836,10.383039,0.097514346,-0.12887116,0.2124649,12.88230139,77.64063706,3.14
152282017046,-1.1507095,-1.651706,9.602142,-0.11725464,-0.1059021,0.43592072,12.88230139,77.64063706,3.14
152282017068,-0.99003446,-1.4337174,9.6511965,0.12914734,-0.003529358,0.66462404,12.88230139,77.64063706,3.14
152282017089,-0.8800842,-1.7275574,10.012991,0.007710266,0.104457095,0.69467926,12.88230139,77.64063706,3.14
152282017110,-0.20434876,-1.2812973,9.611714,0.0647644,0.16016845,0.61355746,12.88227689,77.64063905,2.87
152282017131,-0.039244078,-1.3063018,10.062044,0.07454224,0.17104034,0.47171783,12.88227689,77.64063905,2.87
152282017153,0.16629943,-1.5565903,9.805056,0.03581085,0.13805695,0.3163147,12.88227689,77.64063905,2.87
152282017174,-0.70971525,-1.4587234,9.772753,-0.022824097,0.13109283,0.18705598,12.88227689,77.64063905,2.87
152282017196,-0.30365142,-0.9284744,9.853151,0.004046631,0.13219146,0.182164,12.88227689,77.64063905,2.87
152282017217,0.42855072,-2.0172088,9.262723,-0.012438965,0.07684784,-0.09111633,12.88226035,77.64064615,1.78
152282017238,-0.2726639,-1.9345367,9.745832,-0.07095184,-0.036634825,-0.30211028,12.88226035,77.64064615,1.78
152282017259,-0.33140716,-2.6498718,10.275122,-0.0134185795,-0.08379211,-0.2540924,12.88226035,77.64064615,1.78
152282017280,-0.68494874,-2.6069198,9.600107,-0.03406372,-0.05178528,-0.13643952,12.88226035,77.64064615,1.78
152282017302,-0.42700195,-3.0823746,9.684454,0.0490036,-0.019776916,-0.04750061,12.88226035,77.64064615,1.78
152282017323,-0.4669632,-3.0403824,9.524615,-0.014149475,-0.031378172,0.0011230469,12.88225189,77.64065219,1.35
152282017344,-0.37148744,-1.5128021,9.831372,0.033856202,-0.029794311,0.0417984,12.88225189,77.64065219,1.35
152282017366,-0.15792695,-0.5846268,9.80422,0.009790039,-0.029421996,0.09359436,12.88225189,77.64065219,1.35
152282017386,0.19860382,-1.1462204,9.710541,-0.013301087,-0.03956604,0.08931427,12.88225189,77.64065219,1.35
152282017408,0.29874268,-0.99535525,9.899094,-0.012564087,-0.080004886,-0.01720581,12.88225101,77.64065004,0.0
152282017429,0.28055725,-0.77952117,9.740567,-0.015621948,-0.053245544,-0.005595398,12.88225101,77.64065004,0.0
152282017451,0.17527314,-0.81816864,9.787946,0.0018508912,0.011738586,-0.0018066406,12.88225101,77.64065004,0.0
152282017471,0.14548492,-0.97465515,9.876602,0.0040496825,0.019673157,0.008700562,12.88225101,77.64065004,0.0
