timestamp,accx,accy,accz,gyrx,gyry,gyrz,latitude,longitude,speed
152282715954,-0.359523,-0.963649,9.872052,-0.0027938844,-0.009959412,-0.0050170897,12.92829731,77.62135371,0.0
152282715975,-0.5063217,-1.085083,9.581564,0.0067352294,0.031082153,0.0073196413,12.92829731,77.62135371,0.0
152282715996,-0.68674165,-0.9702301,9.76593,0.002949524,0.014346314,0.003413391,12.92829731,77.62135371,0.0
152282716018,-0.59402007,-1.0618728,9.67285,-4.6844484E-4,-0.029862976,3.5858154E-4,12.92829731,77.62135371,0.0
152282716039,-0.51134646,-0.86937106,9.524257,2.6245118E-4,-0.0020248413,-0.007220459,12.92829731,77.62135371,0.0
152282716060,-0.33332062,-0.50075835,9.929959,0.0286026,-0.052467346,-0.1149704,12.92829731,77.62135371,0.0
152282716081,-0.18149567,-0.6912262,10.0247135,-0.002053833,-0.09889221,-0.17092285,12.92829731,77.62135371,0.0
152282716102,-0.55740815,-1.0591233,9.730397,-0.006452942,-0.051246643,-0.1221756,12.92829731,77.62135371,0.0
152282716124,-0.58995056,-0.7199402,9.823842,0.0012405396,-0.04073944,0.015013123,12.92829731,77.62135371,0.0
152282716145,0.12048034,-0.52588195,9.914286,0.00868988,0.014959717,0.029057313,12.92829731,77.62135371,0.0
152282716166,0.21750641,-0.7363297,9.924457,0.0067367554,-0.0066619874,0.015266418,12.92829731,77.62135371,0.0
152282716187,-0.31107026,-1.0708481,9.562782,-5.935669E-4,0.0023742677,-0.01014862,12.92829731,77.62135371,0.0
152282716209,-0.07501831,-0.55962217,9.764975,5.0354004E-4,0.00592041,0.0019485473,12.92829731,77.62135371,0.0
152282716230,0.003947449,-0.64025724,10.028903,0.0019760132,0.032302856,-2.5177002E-4,12.92829731,77.62135371,0.0
152282716251,-0.29814607,-0.9954742,9.607289,0.0013626099,-0.0108154295,-0.005505371,12.92829731,77.62135371,0.0
152282716273,-0.16761628,-0.5956299,9.808165,-0.0056030275,-0.0332901,-0.0029312135,12.92829731,77.62135371,0.0
152282716294,-0.1651062,-0.7360916,9.649641,8.7127683E-4,-0.009953308,-4.9591064E-4,12.92829731,77.62135371,0.0
152282716315,-0.072265625,-0.6443268,9.710177,0.0013610839,0.033039857,-2.532959E-4,12.92829731,77.62135371,0.0
152282716336,-0.13507691,-0.5459808,9.985232,0.0016052246,0.047207642,-0.0017135621,12.92829731,77.62135371,0.0
152282716358,-0.30209503,-0.29126588,9.724538,0.0044189454,0.06809845,-0.012712097,12.92829731,77.62135371,0.0
152282716379,0.09307861,0.630452,10.51417,0.014192199,0.06455841,-0.06280365,12.92829731,77.62135371,0.0
152282716400,-0.95138705,0.47515565,10.188265,0.004910278,0.04806366,-0.109594725,12.92829731,77.62135371,0.0
152282716421,-0.73722994,0.9793213,9.993965,-0.0014404297,-0.00763855,-0.16262054,12.92829731,77.62135371,0.0
152282716443,0.5103882,1.3930435,10.115642,0.022135925,-0.03731537,-0.23188476,12.92829731,77.62135371,0.0
152282716464,-0.2447876,-0.2051239,8.924855,-1.02233884E-4,0.021922302,-0.18082123,12.92829741,77.62135365,0.0
152282716485,-0.62105715,0.5797211,9.0527525,0.001612854,0.016914368,-0.15577087,12.92829741,77.62135365,0.0
152282716506,-1.0484177,0.14889374,10.812075,-0.009744262,-0.07054901,-0.22357789,12.92829741,77.62135365,0.0
152282716527,-1.6104889,0.53808594,10.695424,-0.026727295,-0.041841127,-0.07514191,12.92829741,77.62135365,0.0
152282716548,-0.99039155,0.7505676,10.856343,0.03325348,0.01923523,0.030648803,12.92829741,77.62135365,0.0
152282716570,-0.4445877,1.0060043,10.292592,0.027027894,0.021801759,-0.014549255,12.92829741,77.62135365,0.0
152282716591,0.5065597,0.90789795,10.424197,0.05120697,-0.06810455,-0.11338196,12.92829741,77.62135365,0.0
152282716613,-1.2788422,0.52037966,10.511536,-0.013656616,-0.10475769,-0.008197022,12.92829741,77.62135365,0.0
152282716633,-0.8386841,0.08500519,9.26272,0.026412964,-0.049168397,0.1713852,12.92829741,77.62135365,0.0
152282716655,0.1628296,-0.5738586,8.533869,-0.07718048,-0.0051940917,0.16649933,12.92829741,77.62135365,0.0
152282716676,-0.18652344,-0.027339172,10.17259,0.01651306,-0.010075378,0.1170166,12.92829741,77.62135365,0.0
152282716698,-0.85280305,0.024351502,10.752849,0.04937897,-0.027297974,0.12251587,12.92829741,77.62135365,0.0
152282716718,-0.10097809,-0.11264038,8.844577,-0.09477844,0.024975587,0.10602264,12.92829741,77.62135365,0.0
152282716740,-0.44291076,-0.38937226,10.161946,0.06171875,-0.014111328,0.08977356,12.92829741,77.62135365,0.0
152282716761,-0.32650453,-0.12867585,9.63002,-0.05458069,0.012997436,0.124102786,12.92829741,77.62135365,0.0
152282716783,-0.49017182,-0.20009765,9.763659,0.025430297,0.09839783,0.14083862,12.92829741,77.62135365,0.0
152282716803,-0.093797304,0.119822696,10.229421,3.8757324E-4,0.087034605,0.028330993,12.92829741,77.62135365,0.0
152282716825,-0.40271148,0.04791565,10.16374,-0.0137786865,0.01373291,-0.054005433,12.92829741,77.62135365,0.0
152282716846,-0.16391143,-0.16372833,9.818214,-0.048597716,0.0068984986,-0.03214264,12.92829741,77.62135365,0.0
152282716868,-0.35653535,-0.14949036,9.982244,0.030439759,-0.04171753,-0.058772277,12.92829741,77.62135365,0.0
152282716889,-0.48490754,-0.6790222,9.542921,0.038867187,-0.0769043,-8.621216E-4,12.92829741,77.62135365,0.0
152282716910,-0.6352936,-0.44942933,9.602382,-0.030398559,-0.05784149,0.05569,12.92829741,77.62135365,0.0
152282716931,-0.560997,-0.39224243,9.963702,-0.010978699,-0.014230346,0.093803406,12.92829741,77.62135365,0.0
152282716952,-0.23198548,-1.0379441,9.709821,0.0027023316,-3.112793E-4,0.072424315,12.92829741,77.62135365,0.0
152282716974,-0.37316284,-1.8300903,9.008844,-0.015007019,0.008354187,0.07364502,12.92829729,77.62135364,0.0
152282716995,-0.65180814,-1.8251846,10.259928,-0.008406067,0.029862976,0.09062958,12.92829729,77.62135364,0.0
152282717016,-0.2892929,-1.4848038,9.225752,-0.08377381,0.073963925,0.08586273,12.92829729,77.62135364,0.0
152282717037,-0.07944336,-2.106462,9.790819,0.06647949,0.053686522,-0.015405273,12.92829729,77.62135364,0.0
152282717058,-0.14141846,-2.0419738,9.615303,-0.044073485,-0.027423095,-0.07416687,12.92829718,77.62135368,0.0
152282717080,-0.6594635,-1.8524659,9.161145,0.007595825,-0.047213744,-0.0017135621,12.92829718,77.62135368,0.0
152282717101,-0.40762025,-1.7313843,10.346311,0.013946533,-0.045991518,0.025520325,12.92829718,77.62135368,0.0
152282717123,-0.7889145,-1.9748566,9.374586,-0.01366272,-0.043302916,0.07022552,12.92829718,77.62135368,0.0
152282717143,-0.842395,-1.4332397,10.271176,0.013578797,-0.02363739,0.13558654,12.92829718,77.62135368,0.0
152282717165,-0.47808534,-1.6033691,9.607765,-0.005480957,0.015446472,0.12447052,12.92829703,77.62135376,0.0
152282717186,-0.49160615,-1.5136398,9.826472,0.01638794,0.008114624,0.094049074,12.92829703,77.62135376,0.0
152282717208,-0.32817993,-1.7991028,9.779211,-0.015863037,0.024848938,0.10504608,12.92829703,77.62135376,0.0
152282717228,-0.23425904,-1.4142182,10.0260315,0.009059143,0.009698486,0.06900482,12.92829703,77.62135376,0.0
152282717250,-0.48299408,-1.3369293,10.147229,0.0072265626,0.022164917,0.07523346,12.92829703,77.62135376,0.0
152282717271,-0.55023193,-1.4422134,9.654066,0.0022186278,0.021429444,0.08329926,12.92823469,77.62136577,2.94
152282717403,-0.47043,-1.6753937,9.887728,-0.0036453246,0.058815002,0.08244324,12.92823469,77.62136577,2.94
152282717424,-0.14524536,-1.4066818,9.742841,-0.0023056031,0.061624147,0.0023101806,12.92823469,77.62136577,2.94
152282717446,-0.11940613,-1.465306,9.522342,0.017610168,0.015930176,-0.11399231,12.92823469,77.62136577,2.94
152282717467,-0.17587432,-1.5228516,9.867986,0.009178162,-0.015942384,-0.1706787,12.92823469,77.62136577,2.94
152282717488,-0.3489975,-1.5619751,9.744995,0.008082581,-0.03426514,-0.14880677,12.92817415,77.62138457,3.01
152282717509,-0.66341096,-1.5575501,9.7985935,0.0075912476,-0.027297974,-0.084179685,12.92817415,77.62138457,3.01
152282717531,-0.30197603,-1.5739396,9.8862915,0.010766601,-0.014720154,-0.048143007,12.92817415,77.62138457,3.01
152282717552,-0.29898375,-1.5435501,9.685412,-0.0036483766,-0.025473023,-0.07147674,12.92817415,77.62138457,3.01
152282717573,-0.577391,-1.2732788,9.615784,-8.361816E-4,-0.01203003,-0.0031829835,12.9281376,77.62136212,1.84
152282717594,-0.24717712,-1.660321,9.676679,-0.010855103,0.002253723,0.016236877,12.9281376,77.62136212,1.84
152282717616,-0.3877594,-1.2014968,9.848724,-0.005723572,-0.013381958,-0.024806213,12.9281376,77.62136212,1.84
152282717637,-0.3383484,-1.6935775,9.269422,0.007714844,-0.03817291,-0.03164673,12.9281376,77.62136212,1.84
152282717658,-0.21535492,-1.5872192,10.025673,0.010890198,-0.066271976,-0.039222717,12.9281376,77.62136212,1.84
152282717679,-1.0036713,-0.77760774,9.629181,-0.011706543,-0.031448364,0.101867676,12.9281147,77.62133847,1.57
152282717701,-0.59784853,-1.489711,9.388225,-0.012197876,-0.0576004,0.2660614,12.9281147,77.62133847,1.57
152282717722,-0.8371307,-0.8461609,10.071856,0.0060058595,-0.08361969,0.37809753,12.9281147,77.62133847,1.57
152282717743,-0.80243224,-0.59694827,10.367726,-0.022459412,-0.048556518,0.5785843,12.9281147,77.62133847,1.57
152282717764,-0.10133667,-0.3849472,9.390497,0.0023406981,0.034136962,0.7066223,12.9281147,77.62133847,1.57
152282717786,0.09068756,-0.49489594,10.417021,0.043145753,0.01471405,0.54596406,12.92809687,77.62132493,0.89
152282717807,-0.30041963,-0.21972199,9.469818,-0.005354309,-0.018629456,0.43197936,12.92809687,77.62132493,0.89
152282717828,-0.68805695,-0.31926423,10.2037,0.07210235,0.066877745,0.42000428,12.92809687,77.62132493,0.89
152282717849,-0.43442076,-2.218924,10.283259,-0.057513427,0.15337372,0.45055085,12.92809687,77.62132493,0.89
152282717870,0.46325073,-1.635315,9.065672,0.021885682,0.09546509,0.079396054,12.92808695,77.62132199,0.42
152282717892,-0.37794954,-2.7256043,10.572433,-0.016345214,0.016673278,-0.18974304,12.92808695,77.62132199,0.42
152282717913,-0.6709503,-1.4027328,9.094147,-0.026733398,0.008607483,-0.16701356,12.92808695,77.62132199,0.42
152282717934,-0.64917755,-2.367517,9.859851,0.107652284,-0.08239593,-0.21429595,12.92808695,77.62132199,0.42
152282717955,-0.52737886,-2.488356,10.294386,-0.078770444,-0.05808716,-0.14062652,12.92808695,77.62132199,0.42
152282717977,-0.1375885,0.113601685,10.038713,0.052186586,-0.030603027,-0.11338349,12.92807987,77.62132157,0.29
152282717998,-0.3134613,-0.90119475,9.941564,0.07283173,0.022535706,-0.095422365,12.92807987,77.62132157,0.29
152282718019,-0.4470993,-0.24986725,10.188505,0.013215637,0.107437134,-0.0529068,12.92807987,77.62132157,0.29
152282718041,0.07357635,-0.66478884,9.30029,0.043515015,0.12246551,-0.08760071,12.92807987,77.62132157,0.29
152282718062,-0.365506,0.59276277,10.028186,0.040818788,0.1169693,-0.24630585,12.92807987,77.62132157,0.29
152282718083,0.011483764,-0.51810455,9.46288,0.10973053,0.059059143,-0.46242827,12.92807354,77.62132402,0.3
152282718104,7.1563723E-4,-1.0003799,8.507428,0.035327148,-0.060166933,-0.6039047,12.92807354,77.62132402,0.3
152282718125,0.14332733,0.26051942,10.198914,0.116566464,-0.092904665,-0.5901001,12.92807354,77.62132402,0.3
152282718147,-1.1888764,0.24580231,10.339732,-0.0037628175,-0.027429199,-0.29053193,12.92807354,77.62132402,0.3
152282718169,-0.8520859,-0.25405884,10.6378765,0.0011245727,-0.050027467,-0.30409393,12.92806501,77.62132926,0.69
152282718189,-0.90018004,-0.2331192,8.795525,-0.014268493,-0.04684906,-0.14233704,12.92806501,77.62132926,0.69
152282718210,0.0038269043,-0.29114836,9.652034,-0.16673584,-0.0034851073,-0.027250672,12.92806501,77.62132926,0.69
152282718232,-0.16403046,-0.43160552,9.655144,0.10251923,-0.019366454,-0.12902221,12.92806501,77.62132926,0.69
152282718253,-0.7585251,-0.31650847,9.345276,0.12744293,-0.048924256,-0.04814453,12.92806501,77.62132926,0.69
152282718274,-0.6737,-1.5569489,10.293428,0.13611755,0.010565186,0.027105713,12.92804881,77.62133111,1.59
152282718295,-0.09990235,-2.439064,9.817258,-0.14205018,0.049409486,0.06973877,12.92804881,77.62133111,1.59
152282718317,-0.17120819,-1.1518447,8.982523,-0.015737915,-0.0371994,-0.13476105,12.92804881,77.62133111,1.59
152282718338,-0.30269164,-1.7287567,10.795924,-0.0014450073,-0.040008545,-0.15210572,12.92804881,77.62133111,1.59
152282718359,-0.56542665,-1.6160507,8.923059,-0.072050475,0.018138122,-0.02199707,12.92804881,77.62133111,1.59
152282718381,-0.5481979,-0.9180649,10.381724,0.036912538,0.023994446,0.018806458,12.92802704,77.62132826,1.73
152282718402,-0.16821747,-1.3698334,9.320032,-0.052381895,-0.060038757,-0.039100647,12.92802704,77.62132826,1.73
152282718423,-0.1257431,-0.21469727,10.618016,0.05340729,-0.09180756,-0.08919068,12.92802704,77.62132826,1.73
152282718444,-1.2503707,-0.8667404,7.4174943,-0.12153168,-0.026818847,0.073776245,12.92802704,77.62132826,1.73
152282718466,-0.38560638,-1.4448471,13.678915,-0.32519683,0.057839967,0.26936492,12.92802704,77.62132826,1.73
152282718487,0.5739166,-1.9736602,9.18615,0.13306732,0.043669127,0.05545044,12.92800744,77.62132378,1.47
152282718508,-0.55561525,-0.8888733,10.585236,0.22689514,-0.057844542,2.3651123E-4,12.92800744,77.62132378,1.47
152282718529,-0.8364121,0.58965147,7.1248536,0.5664078,-0.029379273,0.016845703,12.92800744,77.62132378,1.47
152282718550,-0.16917114,-1.5032318,12.026431,-0.13558197,-0.009344483,0.16307525,12.92800744,77.62132378,1.47
152282718572,-0.19561768,-0.6887131,7.7341857,-0.1861618,0.10193787,0.1892151,12.92798879,77.62131756,1.44
152282718593,0.3724411,-0.44153595,10.718396,-0.22097321,0.04928589,0.026376342,12.92798879,77.62131756,1.44
152282718614,-0.91418,-0.027339172,10.0857315,0.0215271,-0.06675873,-0.19194031,12.92798879,77.62131756,1.44
152282718635,-0.9000595,-0.28372803,7.966052,-0.008036804,-0.108299255,-0.008317566,12.92798879,77.62131756,1.44
152282718657,-0.66197664,1.2951752,10.670778,0.022009278,0.07066651,0.29001313,12.92798879,77.62131756,1.44
152282718678,0.07226105,-0.83204347,10.152371,0.07026825,0.13602753,0.14157256,12.92797309,77.62131103,1.05
152282718699,-0.04462738,-1.4910309,9.748346,-0.096601866,0.085690305,-0.10080109,12.92797309,77.62131103,1.05
152282718720,-0.022972107,-2.0254638,9.830656,-0.062158205,0.05759125,-0.21441956,12.92797309,77.62131103,1.05
152282718742,-0.08961334,-1.588536,10.880748,0.003929138,0.0022506714,-0.2973755,12.92797309,77.62131103,1.05
152282718763,-0.435376,-1.5379273,9.256859,0.0920105,-0.06309815,-0.33096924,12.92797309,77.62131103,1.05
152282718784,-0.52690125,-1.6307678,10.314726,0.03679199,-0.08056793,-0.2786804,12.92796167,77.62130148,0.98
152282718806,-0.77862394,-1.8987625,9.577974,0.017121887,-0.04611511,-0.10776214,12.92796167,77.62130148,0.98
152282718827,-0.78999174,-2.6974869,9.88976,-0.08866425,-0.0062973024,0.004873657,12.92796167,77.62130148,0.98
152282718848,-0.53419954,-2.63683,9.582164,-0.018792724,-0.0077575683,0.048597716,12.92796167,77.62130148,0.98
152282718869,-0.4104889,-2.3328233,9.516004,0.04082489,-0.029499818,0.056417845,12.92795127,77.62129036,1.03
152282718891,-0.10983582,-3.0345168,9.912851,0.0031951903,-3.1280518E-4,0.048597716,12.92795127,77.62129036,1.03
152282718912,-0.31394044,-2.1439102,9.55369,0.0020965575,0.021551514,0.004637146,12.92795127,77.62129036,1.03
152282718933,-0.43944398,-1.093219,9.86703,0.038745116,0.023997497,-4.928589E-4,12.92795127,77.62129036,1.03
152282718954,-0.5050079,-1.1087738,9.744276,-0.007312012,0.038534544,0.0051208497,12.92795127,77.62129036,1.03
152282718975,-0.6757355,-0.85752714,9.765094,0.008570862,0.016299438,-8.5754396E-4,12.92794299,77.62127816,1.07
152282718997,-0.5149353,-0.914357,9.852435,-0.0079223635,-0.010203552,-6.225586E-4,12.92794299,77.62127816,1.07
152282719018,-0.57332003,-1.0268189,9.711736,0.0013626099,-0.01569519,0.0021896362,12.92794299,77.62127816,1.07
152282719039,-0.58325195,-1.0529022,9.739612,0.005763245,0.0073806765,0.013917541,12.92794299,77.62127816,1.07
152282719060,-0.6154373,-1.2190841,9.687808,-0.0038894652,0.025950622,0.026496887,12.92794299,77.62127816,1.07
152282719082,-0.63589174,-0.8461639,9.834249,-0.006211853,0.009091186,0.0078140255,12.92792968,77.6212614,1.6
152282719103,-0.67537844,-1.1947953,9.684217,-0.008653259,-0.011054993,-0.0062332153,12.92792968,77.6212614,1.6
152282719124,-0.67286223,-0.8140976,9.830656,0.0016082764,-0.0137435915,-0.0011062622,12.92792968,77.6212614,1.6
152282719146,-0.6519272,-1.0568497,9.5306,-2.2583008E-4,-0.041104127,-0.0042800903,12.92792968,77.6212614,1.6
152282719167,-0.575116,-1.0391449,9.8609295,-0.0016906739,-0.06932525,-0.009292603,12.92791657,77.62123957,1.89
152282719188,-0.34193268,-0.9345764,9.691637,0.0036804199,-0.10182343,-0.01161499,12.92791657,77.62123957,1.89
152282719209,0.054675292,-1.1575867,9.674406,-0.0045043947,-0.107321166,-0.006729126,12.92791657,77.62123957,1.89
152282719230,0.27337646,-1.1148742,9.875165,-0.0016921997,-0.050265502,-0.005012512,12.92791657,77.62123957,1.89
152282719252,0.17898102,-0.8149368,9.840349,0.0022125244,-0.0048294067,-8.605957E-4,12.92791657,77.62123957,1.89
152282719273,0.14356843,-1.0278962,9.562663,-9.613037E-4,0.0054244995,0.0018218994,12.92790539,77.62121318,2.17
152282719294,0.08135529,-1.0809005,9.870977,0.005509949,0.011412049,-2.4871825E-4,12.92790539,77.62121318,2.17
152282719315,0.17838593,-1.1274383,9.864515,-0.016593933,-0.0032440186,0.10309448,12.92790539,77.62121318,2.17
152282719337,0.10432587,-1.0904709,9.637675,0.011869812,0.02546234,-0.0014694214,12.92790539,77.62121318,2.17
152282719358,0.018661499,-0.99032897,9.867625,-0.0021850585,0.032791138,0.0018249511,12.92790539,77.62121318,2.17
152282719379,-0.08638153,-0.9065796,9.7159195,0.0028274537,0.031814575,0.0013305664,12.92790049,77.62118594,2.09
152282719400,-0.053004455,-1.28022,9.654065,0.009916687,0.029252624,0.00206604,12.92790049,77.62118594,2.09
152282719422,-0.2555542,-0.988176,9.923617,0.0022186278,0.049282838,0.005239868,12.92790049,77.62118594,2.09
152282719443,-0.34935302,-1.0720459,9.762342,0.0033126832,0.041708373,0.0049987794,12.92790049,77.62118594,2.09
152282719464,-0.3497116,-0.96735686,9.857697,0.0012420655,0.057962038,0.0064682006,12.92790049,77.62118594,2.09
152282719485,-0.43525696,-1.0223938,9.707666,0.0071029663,0.06126251,-0.003791809,12.9279007,77.62116304,1.87
152282719507,-0.76797944,-0.8066803,9.823122,0.0040496825,0.05478363,-0.0059921267,12.9279007,77.62116304,1.87
152282719528,-0.7239502,-0.8798996,9.806845,0.0016052246,0.043666076,-0.018704224,12.9279007,77.62116304,1.87
152282719549,-0.7582871,-1.2988831,9.744278,0.0022201538,0.015199279,-0.021020507,12.9279007,77.62116304,1.87
152282719570,-0.85232544,-0.908255,9.720228,-0.001083374,-0.01178894,-0.034703065,12.92790792,77.62114987,0.95
152282719592,-0.8310272,-1.0816162,9.9135685,1.9836425E-5,-0.02595215,-0.0058700563,12.92790792,77.62114987,0.95
152282719613,-0.809375,-0.9129227,9.702402,7.522583E-4,-0.027427673,-7.6293945E-6,12.92790792,77.62114987,0.95
152282719634,-0.6361343,-1.1415542,9.842264,-0.0023025512,-0.030723572,-0.0014724731,12.92790792,77.62114987,0.95
152282719656,-0.66293335,-0.94905394,9.76593,-5.935669E-4,-0.026202392,-0.002204895,12.92790792,77.62114987,0.95
152282719677,-0.6550354,-0.8545395,9.776459,0.0019744872,-0.034262083,-0.002445984,12.92791438,77.62114895,0.41
152282719698,-0.4351349,-1.0079162,9.803263,6.317139E-4,-0.029745484,-0.0013549805,12.92791438,77.62114895,0.41
152282719719,-0.47425994,-0.84747773,9.8348465,9.994507E-4,-0.020817567,-0.0014755249,12.92791438,77.62114895,0.41
152282719741,-0.31047058,-1.2324814,9.6893635,0.0014907836,-0.014353943,-6.164551E-4,12.92791438,77.62114895,0.41
152282719762,-0.3128601,-0.9253632,9.819056,-1.0375977E-4,-0.0011657715,0.0012161254,12.92791438,77.62114895,0.41
152282719783,-0.37543488,-1.1074585,9.744993,7.492065E-4,0.015202331,7.247925E-4,12.92791326,77.62115361,0.0
152282719804,-0.3600006,-1.1505295,9.788904,0.0027053833,0.028393555,0.0012130737,12.92791326,77.62115361,0.0
152282719825,-0.5839691,-0.92093813,9.68685,5.065918E-4,0.03364868,0.0024368286,12.92791326,77.62115361,0.0
152282719847,-0.6809982,-1.1105667,9.895025,7.5073243E-4,0.02704773,8.4533694E-4,12.92791326,77.62115361,0.0
152282719868,-0.6586288,-0.8959335,9.763298,3.8604735E-4,0.008969116,4.8065186E-4,12.92791035,77.62115828,0.0
152282719889,-0.7062424,-0.8668579,9.845375,-2.2735595E-4,0.007989502,-4.9591064E-4,12.92791035,77.62115828,0.0
152282719910,-0.7018158,-0.9399597,9.611951,-5.92041E-4,0.002368164,-1.2817382E-4,12.92791035,77.62115828,0.0
152282719932,-0.71174467,-1.0639099,9.893349,2.6550292E-4,-0.009591674,-9.811402E-4,12.92791035,77.62115828,0.0
152282719953,-0.7605591,-0.90932924,9.675484,6.286621E-4,-0.01984253,-0.0019607544,12.92791035,77.62115828,0.0
152282719974,-0.5577698,-1.1416763,9.854706,0.0013610839,-0.012765503,-0.0020843507,12.92789864,77.62117408,0.0
152282719995,-0.4896927,-0.9929611,9.820608,3.829956E-4,-0.0067840577,-9.841919E-4,12.92789864,77.62117408,0.0
152282720017,-0.6850662,-0.90550387,9.680387,-2.2735595E-4,-0.009712219,-0.0012313842,12.92789864,77.62117408,0.0
152282720038,-0.5447281,-1.2461212,9.864278,1.4190674E-4,-0.009835815,-0.0011016845,12.92789864,77.62117408,0.0
152282720059,-0.53647155,-0.8042892,9.792012,-0.0013259888,-0.010688782,-7.369995E-4,12.92789864,77.62117408,0.0
152282720080,-0.5090729,-1.1591415,9.839989,0.0014862061,-0.0059310915,-9.872436E-4,12.92788952,77.62118091,0.0
152282720102,-0.53898466,-0.7826309,9.74691,9.979248E-4,0.008358764,4.776001E-4,12.92788952,77.62118091,0.0
152282720123,-0.58169556,-1.0640274,9.939054,7.5073243E-4,0.012144471,4.776001E-4,12.92788952,77.62118091,0.0
152282720144,-0.6396042,-1.0265808,9.704794,0.0012405396,0.0077423095,1.15966795E-4,12.92788952,77.62118091,0.0
152282720165,-0.61615145,-0.8301285,9.781843,6.286621E-4,0.0045684814,3.5705566E-4,12.92788183,77.62118299,0.0
152282720187,-0.5018967,-1.1532791,9.898735,5.065918E-4,-0.0025115968,-7.4005127E-4,12.92788183,77.62118299,0.0
152282720208,-0.61196595,-0.95431674,9.856382,3.829956E-4,-0.0056884764,-0.0012313842,12.92788183,77.62118299,0.0
152282720229,-0.5298904,-0.963411,9.676799,1.3885499E-4,-0.008491516,-0.001348877,12.92788183,77.62118299,0.0
152282720250,-0.6809982,-0.8218765,9.81738,-2.2583008E-4,-0.009223938,-0.0014724731,12.92788183,77.62118299,0.0
152282720272,-0.5245102,-1.1670395,9.791654,1.4343261E-4,-0.0064193727,-4.989624E-4,12.92787459,77.62118442,0.0
152282720293,-0.6269226,-0.80464476,9.811514,7.522583E-4,-0.0028762817,-7.4310304E-4,12.92787459,77.62118442,0.0
152282720314,-0.49495697,-1.1216934,9.842982,1.9836425E-5,0.001638794,-2.548218E-4,12.92787459,77.62118442,0.0
152282720335,-0.5048874,-1.0296905,9.778256,2.6550292E-4,0.0038330078,-4.989624E-4,12.92787459,77.62118442,0.0
152282720357,-0.58768004,-0.99930114,9.75696,5.096436E-4,0.0045715333,-4.577637E-6,12.92787459,77.62118442,0.0
152282720378,-0.6001221,-0.9069397,9.7465515,7.522583E-4,0.004812622,-8.6364744E-4,12.92786934,77.6211896,0.0
152282720399,-0.5126648,-1.1215744,9.912251,-5.92041E-4,0.005543518,8.4838865E-4,12.92786934,77.6211896,0.0
152282720420,-0.6958359,-1.0654633,9.660765,1.4190674E-4,0.016183471,2.3651123E-4,12.92786934,77.6211896,0.0
152282720442,-0.65779114,-0.9075363,9.786749,2.6245118E-4,0.013127136,3.6010743E-4,12.92786934,77.6211896,0.0
152282720463,-0.7206009,-1.0221558,9.811035,2.6245118E-4,0.011410522,7.247925E-4,12.92786934,77.6211896,0.0
152282720484,-0.595575,-1.0205963,9.787707,8.758545E-4,9.0789795E-4,-7.369995E-4,12.92786417,77.62119164,0.0
152282720505,-0.6781235,-0.9722656,9.675842,-1.05285646E-4,-0.0058059692,-9.811402E-4,12.92786417,77.62119164,0.0
152282720527,-0.7774307,-0.83610994,9.728602,-4.7149658E-4,-0.0075164796,-0.0011077881,12.92786417,77.62119164,0.0
152282720548,-0.6068207,-1.2720826,9.900887,8.743286E-4,-0.009350586,-9.811402E-4,12.92786417,77.62119164,0.0
152282720569,-0.6425934,-0.88851625,9.759709,3.845215E-4,-0.010444641,-6.225586E-4,12.92786001,77.62119397,0.0
152282720590,-0.6850678,-0.89724886,9.79967,1.3885499E-4,-0.012033081,-0.0019577027,12.92786001,77.62119397,0.0
152282720612,-0.58373106,-0.9981049,9.801227,5.065918E-4,-0.012033081,-7.4310304E-4,12.92786001,77.62119397,0.0
152282720633,-0.5288147,-0.99332124,9.911296,6.286621E-4,-0.0037323,-0.0012252808,12.92786001,77.62119397,0.0
152282720654,-0.5540573,-1.2000611,9.611834,3.829956E-4,-0.0021408082,-7.4005127E-4,12.92786001,77.62119397,0.0
152282720675,-0.57786864,-0.87691194,9.683499,2.6245118E-4,-0.005680847,-6.164551E-4,12.92785841,77.62119514,0.0
152282720697,-0.6229736,-1.0423721,9.731834,5.096436E-4,-0.011665344,-0.0012283325,12.92785841,77.62119514,0.0
152282720718,-0.50237274,-1.0542176,9.714725,8.7280275E-4,-0.018133545,-0.0017166138,12.92785841,77.62119514,0.0
152282720739,-0.5101517,-0.94450533,9.857936,0.0011184693,-0.0027526855,0.0018218994,12.92785841,77.62119514,0.0
152282720760,-0.5621964,-0.9439087,9.694028,9.918213E-4,0.01972046,6.011963E-4,12.92785841,77.62119514,0.0
152282720782,-0.6692749,-1.0056427,9.827906,-7.1258546E-4,0.01752014,-1.3122559E-4,12.92786149,77.62119251,0.0
152282720803,-0.62823486,-1.0484756,9.685293,0.001852417,0.0026153564,7.247925E-4,12.92786149,77.62119251,0.0
152282720824,-0.57631224,-0.98782045,9.757199,0.0016021729,0.012145996,8.514404E-4,12.92786149,77.62119251,0.0
152282720845,-0.6680771,-1.1141571,9.80242,-2.2277833E-4,0.007258606,-3.7536622E-4,12.92786149,77.62119251,0.0
152282720867,-0.6044281,-0.86542207,9.788304,0.0019729615,0.005665588,9.689331E-4,12.92786149,77.62119251,0.0
152282720888,-0.7091125,-0.94666135,9.720347,-8.346558E-4,-8.026123E-4,-0.0018371582,12.92786238,77.6211919,0.0
152282720909,-0.68135834,-0.91208345,9.834247,8.7280275E-4,-0.003364563,-8.605957E-4,12.92786238,77.6211919,0.0
152282720930,-0.65754855,-1.2116654,9.913092,-0.0012008667,-0.008859253,1.1901856E-4,12.92786238,77.6211919,0.0
152282720951,-0.6866196,-0.9752533,9.81738,0.0017288208,-0.016545106,-0.0036743165,12.92786238,77.6211919,0.0
152282720973,-0.57715,-0.9155518,9.758394,-5.8898923E-4,-0.013497924,-1.3122559E-4,12.92786255,77.6211921,0.0
152282720994,-0.5935394,-0.9235687,9.79357,-2.2583008E-4,-0.012765503,-0.0017166138,12.92786255,77.6211921,0.0
152282721015,-0.59413755,-0.90993196,9.89993,0.0016082764,-0.006170654,-0.0023284913,12.92786255,77.6211921,0.0
152282721037,-0.52020264,-1.1912063,9.747746,-1.00708006E-4,-0.0066619874,-0.0020843507,12.92786255,77.6211921,0.0
152282721058,-0.48371276,-0.7918457,9.732073,-7.1105955E-4,-0.010810852,0.0010925293,12.92786255,77.6211921,0.0
152282721079,-0.52869415,-1.0496719,9.867027,6.286621E-4,0.011903381,0.0015808105,12.92786277,77.62119252,0.0
152282721100,-0.62273407,-1.0976471,9.7458315,-5.92041E-4,0.008848572,-2.5177002E-4,12.92786277,77.62119252,0.0
152282721122,-0.6212967,-0.8870819,9.72011,9.933471E-4,-0.011909485,-0.0012252808,12.92786277,77.62119252,0.0
152282721143,-0.45128784,-1.0551758,9.823481,0.0016067505,-0.008743286,-3.7231445E-4,12.92786277,77.62119252,0.0
152282721164,-0.52738035,-1.1064987,9.795362,2.6245118E-4,0.004447937,-2.5177002E-4,12.92786277,77.62119252,0.0
152282721185,-0.47282258,-0.99667203,9.712932,2.6550292E-4,0.0027404786,0.0021896362,12.92786242,77.62119308,0.0
152282721206,-0.6187851,-0.87272185,9.719152,6.271362E-4,-0.006906128,-0.0011016845,12.92786242,77.62119308,0.0
152282721228,-0.49507752,-1.2140579,9.901245,7.5073243E-4,-0.0027526855,-7.4005127E-4,12.92786242,77.62119308,0.0
152282721249,-0.5007019,-0.9181839,9.80278,-1.0375977E-4,-0.002632141,-8.666992E-4,12.92786242,77.62119308,0.0
152282721270,-0.5235504,-0.92859346,9.796082,9.94873E-4,0.008843994,-7.6293945E-6,12.92786278,77.62119274,0.0
152282721291,-0.6711914,-0.9110077,9.889401,1.449585E-4,0.010186767,1.1901856E-4,12.92786278,77.62119274,0.0
152282721313,-0.53180695,-1.2376251,9.763777,1.9836425E-5,0.0024978637,1.15966795E-4,12.92786278,77.62119274,0.0
152282721334,-0.5726059,-0.78143466,9.80984,-1.0375977E-4,-1.9073486E-4,-7.4005127E-4,12.92786278,77.62119274,0.0
152282721356,-0.55740964,-1.151007,9.807806,9.979248E-4,-0.004586792,-6.164551E-4,12.92786278,77.62119274,0.0
152282721377,-0.51541597,-1.111528,9.825033,-1.02233884E-4,-0.012521362,-0.0013458251,12.92786212,77.6211935,0.0
152282721398,-0.61005247,-0.9197403,9.716759,-0.0015686036,-0.017036438,-0.0015960693,12.92786212,77.6211935,0.0
152282721419,-0.5107498,-1.2771072,9.770119,-7.1563723E-4,-0.018624878,-0.0028167726,12.92786212,77.6211935,0.0
152282721441,-0.46971282,-0.869133,9.844772,0.0023391724,-3.097534E-4,-4.577637E-6,12.92786212,77.6211935,0.0
152282721462,-0.56877595,-0.80488586,9.79285,-9.5977786E-4,0.01789093,2.3651123E-4,12.92786212,77.6211935,0.0
152282721483,-0.61220247,-1.0374664,9.826231,6.286621E-4,0.009332275,6.04248E-4,12.92786147,77.62119401,0.0
152282721504,-0.57511747,-0.9903275,9.817017,0.0012405396,0.009455872,8.4533694E-4,12.92786147,77.62119401,0.0
152282721525,-0.58373106,-1.0781434,9.798116,0.0014877319,0.011408997,0.0073196413,12.92786147,77.62119401,0.0
152282721546,-0.7060043,-0.96113586,9.700727,1.4190674E-4,0.0060424805,0.02991333,12.92786147,77.62119401,0.0
152282721568,-0.920163,-1.0903504,9.840111,-0.008654785,0.015686035,0.09612884,12.92786089,77.62119459,0.0
152282721589,-0.1971695,-0.92644197,9.882223,-0.013174439,-0.016679382,0.08439789,12.92786089,77.62119459,0.0
152282721610,-0.5270203,-1.3180252,9.813069,-0.0040145875,-0.023875427,-0.012588501,12.92786089,77.62119459,0.0
152282721631,-0.47509462,-0.8812149,9.782201,-0.009754944,-0.04073639,-0.00831604,12.92786089,77.62119459,0.0
152282721653,-0.41719055,-1.1930008,9.850278,6.286621E-4,-0.036585998,-0.006729126,12.92786089,77.62119459,0.0
152282721674,-0.29395905,-0.873082,9.806013,-0.0020614625,-0.038053893,-0.0042785644,12.92786063,77.62119425,0.0
152282721695,-0.25902405,-1.0865219,9.750499,-0.0014480591,-0.03133545,-0.004649353,12.92786063,77.62119425,0.0
152282721716,-0.24287263,-0.8704483,9.7985935,-0.0014480591,-0.015449524,-0.002571106,12.92786063,77.62119425,0.0
152282721738,-0.22097778,-1.3352554,9.858892,-0.0015716553,6.637573E-4,0.002067566,12.92786063,77.62119425,0.0
152282721759,-0.254718,-0.9732208,9.838316,-0.012565613,-3.1433106E-4,0.006222534,12.92786063,77.62119425,0.0
152282721781,-0.25029144,-1.327954,9.820369,-0.013417053,-0.0028747558,0.004022217,12.92786063,77.62119207,0.0
152282721801,-0.22133942,-1.0537369,9.8335285,-0.004872131,0.008483887,9.6588134E-4,12.92786063,77.62119207,0.0
152282721823,-0.3452835,-1.2632309,9.710421,-0.0052337646,-0.002507019,-0.0017150879,12.92786063,77.62119207,0.0
152282721844,-0.26273346,-1.3292725,9.879831,-0.014881897,-0.0027526855,9.7351073E-4,12.92786063,77.62119207,0.0
152282721866,-0.28570557,-1.2413361,9.697136,-2.3040772E-4,-0.0027557374,-0.0030609132,12.92786063,77.62119207,0.0
152282721886,-0.3154953,-1.1435883,9.919672,0.008444214,-0.0058059692,-0.0012252808,12.9278601,77.62119132,0.0
152282721908,-0.21368103,-1.0919068,9.669504,0.021641541,-0.010574341,-0.004040527,12.9278601,77.62119132,0.0
152282721929,-0.20171662,-1.1242081,9.954007,0.05194397,-0.02339325,-0.03751526,12.9278601,77.62119132,0.0
152282721950,-0.20638275,-1.0021728,9.841307,-0.03626709,0.02925415,-9.811402E-4,12.9278601,77.62119132,0.0
152282721971,-0.30903322,-1.173021,9.8830595,-0.0010787963,0.017765809,3.5400392E-4,12.92785926,77.62119137,0.0
152282721993,-0.3887146,-0.8758316,9.739012,0.005026245,0.02973938,0.0058547975,12.92785926,77.62119137,0.0
152282722014,-0.41396028,-1.2257812,9.854467,0.0056381226,0.040242005,0.0054885866,12.92785926,77.62119137,0.0
152282722035,-0.47545472,-1.1652435,9.700127,0.0020950318,0.055761717,0.007444763,12.92785926,77.62119137,0.0
152282722056,-0.66544497,-0.99643403,9.797159,0.001725769,0.04452362,0.0025604249,12.92785926,77.62119137,0.0
152282722078,-0.5733231,-1.1721817,9.790937,0.006616211,0.0051849363,-0.02431488,12.92785905,77.62118874,0.0
152282722099,-0.7481171,-0.8416153,9.699292,0.0055160522,-0.035121154,-0.06549072,12.92785905,77.62118874,0.0
152282722120,-0.45798796,-1.2316468,9.891673,0.0017288208,-0.06932831,-0.07563019,12.92785905,77.62118874,0.0
152282722141,-0.50010073,-1.0050446,9.632292,-2.2735595E-4,-0.065171815,-0.083815,12.92785905,77.62118874,0.0
152282722163,-0.41108704,-1.1419144,9.887609,9.933471E-4,-0.02595215,-0.0072143553,12.92785905,77.62118874,0.0
152282722184,-0.29479676,-0.93912506,9.767128,2.6550292E-4,0.0073806765,0.013186646,12.92785898,77.62118784,0.0
152282722205,-0.25244293,-1.1580658,9.779928,7.537842E-4,0.031817626,0.004144287,12.92785898,77.62118784,0.0
152282722226,-0.4675583,-0.9461807,9.658136,6.30188E-4,0.0411026,0.0058486937,12.92785898,77.62118784,0.0
152282722248,-0.52498627,-1.3313049,9.92362,3.845215E-4,0.039755248,0.0023132325,12.92785898,77.62118784,0.0
152282722269,-0.6569519,-1.0131805,9.755521,0.0016082764,0.02118988,0.00365448,12.92785917,77.62118681,0.0
152282722290,-0.80075836,-0.99690855,9.867508,0.003927612,0.011657715,0.03199158,12.92785917,77.62118681,0.0
152282722311,-0.7462036,-1.0180862,9.580248,-0.0016921997,-0.0028793334,0.059721373,12.92785917,77.62118681,0.0
152282722333,-0.87780917,-1.0395019,9.868345,-0.014152527,0.0013916015,0.0961258,12.92785917,77.62118681,0.0
152282722354,0.16522369,-1.198384,9.895503,-0.009632873,-0.028645325,0.03174896,12.92785917,77.62118681,0.0
152282722375,-0.75505525,-1.1577088,9.678235,-0.0023010254,1.7852783E-4,-9.811402E-4,12.92785918,77.62118778,0.0
152282722396,-0.56985015,-1.0281357,9.690439,-8.3770754E-4,-0.0066635134,-0.0033081055,12.92785918,77.62118778,0.0
152282722418,-0.66161805,-1.2936188,9.821446,-0.0012023926,-0.009960937,-0.0015960693,12.92785918,77.62118778,0.0
152282722439,-0.5129059,-1.0855652,9.752533,0.0011154175,-0.014350891,-0.0024490356,12.92785918,77.62118778,0.0
152282722461,-0.5379089,-1.0741959,9.901964,-0.0012054443,-0.018013,-0.002572632,12.92785918,77.62118778,0.0
152282722482,-0.4736603,-1.0300522,9.675603,-0.0058486937,1.7395019E-4,0.001210022,12.92785917,77.6211883,0.0
152282722503,-0.56183624,-1.1852233,9.857936,-5.935669E-4,-0.0062942505,-8.5754396E-4,12.92785917,77.6211883,0.0
152282722524,-0.45595247,-1.0311279,9.892392,0.0063705444,-0.014108276,-0.0018371582,12.92785917,77.6211883,0.0
152282722545,-0.4688751,-1.1703933,9.707907,-7.1563723E-4,0.0079956055,0.0012130737,12.92785917,77.6211883,0.0
152282722566,-0.5053665,-1.2030518,9.918714,-0.0047470094,0.012144471,0.0021896362,12.92785964,77.62118867,0.0
152282722588,-0.5559738,-1.0554154,9.800387,-0.0025482178,0.016056824,0.004753113,12.92785964,77.62118867,0.0
152282722609,-0.6114868,-1.3651626,9.726689,0.005882263,-0.008981323,-0.0033065795,12.92785964,77.62118867,0.0
152282722630,-0.54891205,-1.1097305,9.884257,3.829956E-4,-0.0037338256,-0.001600647,12.92785964,77.62118867,0.0
152282722651,-0.6049057,-1.232721,9.771555,0.0038070679,0.0043258667,2.3651123E-4,12.92785964,77.62118867,0.0
152282722673,-0.5806244,-1.1883347,9.878756,0.005880737,0.0144699095,0.0034103394,12.92786085,77.62118899,0.0
152282722694,-0.5839691,-1.1522033,9.748586,0.003439331,0.011532593,0.0026779175,12.92786085,77.62118899,0.0
152282722715,-0.7265808,-1.2600021,9.791655,0.0013595581,0.015325928,0.0026809692,12.92786085,77.62118899,0.0
152282722737,-0.7174881,-0.8931839,9.825514,0.0028289794,0.02350769,0.003895569,12.92786085,77.62118899,0.0
152282722758,-0.73759,-1.0454849,9.615062,3.8604735E-4,0.02142639,0.0024337769,12.92786085,77.62118899,0.0
152282722779,-0.7560135,-1.0672607,9.922544,0.003315735,-0.0025054931,-0.017111206,12.92786166,77.62118894,0.0
152282722800,-0.8145172,-0.89365995,9.642703,-3.5095215E-4,-0.044161987,-0.059747316,12.92786166,77.62118894,0.0
152282722821,-0.5388657,-1.207956,9.794047,-0.001574707,-0.0754364,-0.0851593,12.92786166,77.62118894,0.0
152282722843,-0.5115875,-1.2593994,9.825632,0.0034439086,-0.068963625,-0.09774323,12.92786166,77.62118894,0.0
152282722864,-0.64869386,-0.94259185,9.786034,-2.2735595E-4,-0.033169556,-0.038124084,12.92786166,77.62118894,0.0
152282722885,-0.312265,-1.0938202,9.638395,1.3885499E-4,-0.004711914,0.019415284,12.92786214,77.6211896,0.0
152282722906,-0.31393737,-1.2646637,9.948026,0.0020950318,0.02008667,0.0018218994,12.92786214,77.6211896,0.0
152282722928,-0.3538971,-1.1498123,9.688046,0.015901184,0.037072755,0.005609131,12.92786214,77.6211896,0.0
152282722949,-0.54137725,-1.0680969,9.859492,1.6784668E-5,0.040856935,5.996704E-4,12.92786214,77.6211896,0.0
152282722970,-0.6221344,-1.1346146,9.913691,1.449585E-4,0.010066223,1.1291504E-4,12.92786237,77.62119016,0.0
152282722991,-0.5394608,-0.98710024,9.784117,7.5073243E-4,-0.017892456,-0.0030609132,12.92786237,77.62119016,0.0
152282723013,-0.44315338,-1.2858413,9.68685,1.4190674E-4,-0.032673646,-0.002696228,12.92786237,77.62119016,0.0
152282723034,-0.43932343,-1.0194016,9.831736,-3.4942626E-4,-0.028279115,-0.0029342652,12.92786237,77.62119016,0.0
152282723055,-0.4350174,-0.9711868,9.731715,0.0012390136,-0.015818786,-0.0015930176,12.92786237,77.62119016,0.0
152282723076,-0.3838089,-1.1182251,9.677399,5.065918E-4,-0.003366089,-2.548218E-4,12.9278624,77.6211914,0.0
152282723098,-0.43322143,-1.1930008,9.750137,-0.001449585,0.002496338,0.0010925293,12.9278624,77.6211914,0.0
152282723119,-0.3732834,-0.98960876,9.872891,3.829956E-4,0.015570069,4.8065186E-4,12.9278624,77.6211914,0.0
152282723140,-0.5501114,-1.269928,9.733869,1.6784668E-5,0.022529602,9.689331E-4,12.9278624,77.6211914,0.0
152282723161,-0.5032135,-1.0422547,9.845255,-1.0375977E-4,0.018014526,0.0029251098,12.9278624,77.6211914,0.0
152282723183,-0.4826355,-1.0834091,9.8563795,9.933471E-4,0.009823608,3.6315917E-4,12.92786254,77.62119159,0.0
152282723204,-0.6149567,-0.89880216,9.766291,-2.2735595E-4,-0.0059280396,8.4838865E-4,12.92786254,77.62119159,0.0
152282723225,-0.5259415,-1.0708481,9.761505,5.020142E-4,-0.013497924,-0.002572632,12.92786254,77.62119159,0.0
152282723246,-0.47964326,-1.326999,9.885576,3.845215E-4,-0.017521668,-7.4005127E-4,12.92786254,77.62119159,0.0
152282723267,-0.47019196,-1.0361496,9.809364,6.286621E-4,-0.011422729,-0.0040390017,12.92786272,77.62119163,0.0
152282723289,-0.57583463,-1.0511078,9.703957,0.0011169433,-0.012521362,-0.002204895,12.92786272,77.62119163,0.0
152282723310,-0.3829712,-1.1863022,9.754926,0.0017242432,-0.010688782,-0.001348877,12.92786272,77.62119163,0.0
152282723331,-0.50823516,-0.8968903,9.831017,-0.00340271,-0.0044662477,-1.2817382E-4,12.92786272,77.62119163,0.0
152282723353,-0.3809387,-1.0556533,9.796083,-0.0016921997,0.0017623901,-4.577637E-6,12.92786272,77.62119163,0.0
152282723374,-0.4341812,-1.3021148,9.822523,-0.003038025,0.011042786,2.3956299E-4,12.92786297,77.62119172,0.0
152282723395,-0.4268814,-1.0594833,9.792969,0.0028274537,0.010310364,3.5705566E-4,12.92786297,77.62119172,0.0
152282723416,-0.58552396,-0.92560273,9.72597,0.0022155761,0.010681152,0.001574707,12.92786297,77.62119172,0.0
152282723438,-0.5435303,-1.1446655,9.700487,0.0035598755,2.9449462E-4,-8.605957E-4,12.92786297,77.62119172,0.0
152282723459,-0.5581268,-1.212146,9.822762,1.6784668E-5,-0.010203552,-0.0012252808,12.92786297,77.62119172,0.0
152282723480,-0.5029724,-0.9229721,9.83006,3.8757324E-4,-0.012641907,-0.0012313842,12.9278631,77.62119174,0.0
152282723501,-0.5004608,-0.97261965,9.68912,1.3885499E-4,-0.012394714,-7.4005127E-4,12.9278631,77.62119174,0.0
152282723523,-0.42807922,-1.2110687,9.871218,1.449585E-4,-0.01386261,-0.0011077881,12.9278631,77.62119174,0.0
152282723544,-0.37029114,-1.1763703,9.752769,5.050659E-4,-0.011177063,-0.0014724731,12.9278631,77.62119174,0.0
152282723566,-0.44482574,-0.8929413,9.7712,1.4038086E-4,-0.004096985,-7.4005127E-4,12.9278631,77.62119174,0.0
152282723586,-0.42424774,-1.0567276,9.744757,1.9836425E-5,0.0015213012,1.15966795E-4,12.92786334,77.62119181,0.0
152282723608,-0.38931578,-1.220877,9.892752,9.94873E-4,0.005300903,-7.6293945E-6,12.92786334,77.62119181,0.0
152282723629,-0.4127609,-1.0238266,9.81989,-1.0375977E-4,0.009332275,8.4533694E-4,12.92786334,77.62119181,0.0
152282723650,-0.5430527,-1.0037292,9.871933,0.0012359619,0.007989502,2.3651123E-4,12.92786334,77.62119181,0.0
152282723671,-0.49088898,-1.0177262,9.776344,1.4038086E-4,0.006036377,-2.548218E-4,12.92786347,77.62119187,0.0
152282723693,-0.4972275,-1.1353347,9.756122,-3.5095215E-4,0.005548096,-4.577637E-6,12.92786347,77.62119187,0.0
152282723714,-0.50548553,-1.0923812,9.918117,1.3885499E-4,0.0066452026,-4.928589E-4,12.92786347,77.62119187,0.0
152282723735,-0.49591368,-1.0226349,9.841425,-0.0012054443,0.0070129395,-2.4871825E-4,12.92786347,77.62119187,0.0
152282723756,-0.6373291,-1.2028122,9.758276,-8.346558E-4,0.009208679,2.3956299E-4,12.92786347,77.62119187,0.0
152282723778,-0.52295226,-1.1992218,9.798236,1.3885499E-4,0.0066452026,-3.7536622E-4,12.92786356,77.62119189,0.0
152282723799,-0.68087924,-0.9275177,9.772751,-4.6691895E-4,0.0027389526,-9.841919E-4,12.92786356,77.62119189,0.0
152282723820,-0.57463837,-1.0885544,9.800987,-7.141113E-4,-0.0021438599,-3.7536622E-4,12.92786356,77.62119189,0.0
152282723841,-0.573082,-1.2274597,9.9097395,0.0012390136,-0.006053162,-9.841919E-4,12.92786356,77.62119189,0.0
152282723863,-0.55298156,-1.0409378,9.756841,0.003074646,-0.009829712,-0.0014724731,12.92786356,77.62119189,0.0
152282723884,-0.6181854,-1.1171494,9.722862,0.0023406981,-0.017521668,-0.0011047364,12.92786365,77.62119191,0.0
152282723905,-0.45643157,-1.2438476,9.725014,0.0019714355,-0.020695496,-0.0024490356,12.92786365,77.62119191,0.0
152282723926,-0.5105087,-0.910408,9.762224,0.0020965575,-0.023143005,-0.0019607544,12.92786365,77.62119191,0.0
152282723948,-0.43226624,-1.051944,9.823483,6.286621E-4,-0.024368286,-0.0015960693,12.92786365,77.62119191,0.0
152282723969,-0.36323243,-1.3058227,9.773709,3.8604735E-4,-0.01752472,-0.0020843507,12.92786371,77.62119199,0.0
152282723990,-0.353302,-1.0618759,9.802542,-8.361816E-4,-0.006904602,-0.0011077881,12.92786371,77.62119199,0.0
152282724011,-0.37316284,-1.0204788,9.864157,5.065918E-4,6.6223147E-4,-4.989624E-4,12.92786371,77.62119199,0.0
152282724033,-0.3817749,-1.0393829,9.820967,2.609253E-4,0.0029830933,-3.7536622E-4,12.92786371,77.62119199,0.0
152282724054,-0.4035507,-1.1388047,9.706233,-1.05285646E-4,0.008842468,-1.3122559E-4,12.92786371,77.62119199,0.0
152282724075,-0.4237732,-1.0855621,9.900408,9.94873E-4,0.011166382,2.3651123E-4,12.92786371,77.62119199,0.0
152282724096,-0.4409973,-1.0146148,9.762342,1.4038086E-4,0.00860138,-1.2817382E-4,12.92786371,77.62119199,0.0
152282724118,-0.5934204,-1.1443069,9.743919,7.522583E-4,0.007621765,-1.2817382E-4,12.92786371,77.62119199,0.0
152282724139,-0.4916092,-1.0952561,9.748823,0.0012435913,0.0046920776,-6.195068E-4,12.92786371,77.62119199,0.0
152282724160,-0.5168503,-1.2454026,9.731474,1.9836425E-5,-4.348755E-4,-3.7841796E-4,12.92786371,77.62119199,0.0
152282724181,-0.49256134,-1.0441666,9.927568,1.3885499E-4,-0.0028778077,-8.6364744E-4,12.92786385,77.62119209,0.0
152282724203,-0.4543976,-1.0454849,9.738417,1.4190674E-4,-0.0048248293,-0.0012283325,12.92786385,77.62119209,0.0
152282724224,-0.5631531,-1.1891739,9.83329,6.317139E-4,-0.006417847,-9.841919E-4,12.92786385,77.62119209,0.0
152282724245,-0.40546417,-1.2480361,9.704559,-3.4637452E-4,-0.002999878,-2.5177002E-4,12.92786385,77.62119209,0.0
152282724266,-0.5818161,-0.8839691,9.814507,-2.2583008E-4,-0.0011672974,-0.0011047364,12.92786411,77.62119218,0.0
152282724288,-0.52295226,-1.0913055,9.7369795,7.5073243E-4,-0.0026260377,-6.1340333E-4,12.92786411,77.62119218,0.0
152282724309,-0.452005,-1.2036499,9.90328,0.0014846802,3.0059816E-4,-3.7536622E-4,12.92786411,77.62119218,0.0
152282724330,-0.4756958,-1.050389,9.810915,-8.3770754E-4,-0.0034866333,-4.928589E-4,12.92786411,77.62119218,0.0
152282724351,-0.5613602,-0.963411,9.789263,0.0019714355,-0.001902771,-4.928589E-4,12.92786411,77.62119218,0.0
152282724373,-0.5077591,-1.0831696,9.777539,1.6784668E-5,-5.5541995E-4,-7.4310304E-4,12.92786423,77.62119224,0.0
152282724394,-0.5252243,-1.1575882,9.717957,5.050659E-4,-8.026123E-4,-6.195068E-4,12.92786423,77.62119224,0.0
152282724415,-0.47030944,-1.222673,9.866669,3.845215E-4,0.0010299683,-6.164551E-4,12.92786423,77.62119224,0.0
152282724436,-0.45272368,-1.0659409,9.79022,1.8310548E-5,5.0354003E-5,-4.898071E-4,12.92786423,77.62119224,0.0
152282724458,-0.6635315,-0.98638153,9.733991,5.0811766E-4,-0.0026306151,-8.605957E-4,12.92786423,77.62119224,0.0
152282724479,-0.4712677,-1.1592636,9.688765,9.96399E-4,-0.0028762817,-0.0011047364,12.92786429,77.62119232,0.0
152282724500,-0.5145782,-1.2182449,9.843458,9.96399E-4,-0.003364563,-2.5177002E-4,12.92786429,77.62119232,0.0
152282724521,-0.58241427,-0.8861252,9.772634,1.4343261E-4,5.340576E-5,-9.811402E-4,12.92786429,77.62119232,0.0
152282724543,-0.5333618,-1.0140183,9.73937,1.3885499E-4,-0.005686951,-0.0011047364,12.92786429,77.62119232,0.0
152282724564,-0.51062775,-1.2235123,9.782206,1.6784668E-5,-0.0098373415,-0.0011108399,12.92786429,77.62119232,0.0
152282724585,-0.4136017,-1.1926422,9.76019,2.6245118E-4,-0.015692139,-0.0015960693,12.92786424,77.62119249,0.0
152282724606,-0.4923233,-0.9553955,9.823239,3.8757324E-4,-0.012641907,-0.0012283325,12.92786424,77.62119249,0.0
152282724627,-0.44470674,-1.031607,9.770001,-8.346558E-4,-0.0010437012,-6.225586E-4,12.92786424,77.62119249,0.0
152282724649,-0.47509614,-1.2963699,9.69558,3.845215E-4,0.0029830933,-7.369995E-4,12.92786424,77.62119249,0.0
152282724670,-0.44949037,-1.1163101,9.809003,5.065918E-4,1.7089843E-4,-8.605957E-4,12.92786422,77.62119258,0.0
152282724691,-0.42508546,-1.144548,9.873728,1.4038086E-4,0.003465271,-4.9591064E-4,12.92786422,77.62119258,0.0
152282724713,-0.5143387,-1.0365098,9.741646,1.4038086E-4,0.0023712157,-2.5177002E-4,12.92786422,77.62119258,0.0
152282724734,-0.5213974,-1.1868988,9.743441,2.6397704E-4,-1.9073486E-4,-2.5177002E-4,12.92786422,77.62119258,0.0
152282724755,-0.49411926,-0.9993027,9.851595,3.845215E-4,-0.0037323,-0.0011108399,12.92786422,77.62119258,0.0
152282724776,-0.4666031,-1.0116227,9.825033,-4.7302246E-4,-0.008369446,-0.0013519287,12.92786417,77.62119266,0.0
152282724797,-0.5571701,-1.0501496,9.758992,6.30188E-4,-0.009709167,-0.0014694214,12.92786417,77.62119266,0.0
152282724819,-0.45643157,-1.1439499,9.6874485,-9.613037E-4,-0.009835815,-0.0015960693,12.92786417,77.62119266,0.0
152282724840,-0.45894623,-1.1669204,9.915006,7.5073243E-4,-0.00910492,4.8065186E-4,12.92786417,77.62119266,0.0
152282724861,-0.45009002,-0.97848815,9.789142,7.537842E-4,0.01140747,-4.9591064E-4,12.92786417,77.62119266,0.0
152282724883,-0.503212,-1.2826126,9.723697,3.8604735E-4,0.011048889,4.776001E-4,12.92786417,77.62119266,0.0
152282724904,-0.49519348,-1.0439285,9.805176,-2.2735595E-4,-0.0038543702,-9.872436E-4,12.92786417,77.62119266,0.0
152282724925,-0.55010986,-0.9603012,9.809244,7.5531006E-4,-0.00605011,-0.0012313842,12.92786417,77.62119266,0.0
152282724946,-0.50823516,-1.0792236,9.772632,2.1362304E-5,-0.005317688,-0.0011016845,12.92786417,77.62119266,0.0
152282724967,-0.48143464,-1.115831,9.745714,3.8757324E-4,-0.004585266,-7.4005127E-4,12.92786417,77.62119266,0.0
152282724989,-0.44159546,-1.2556931,9.852312,1.4343261E-4,-0.00995636,-7.4005127E-4,12.92786417,77.62119266,0.0
152282725010,-0.39577484,-1.068216,9.782324,-1.02233884E-4,-0.009712219,-0.0015960693,12.92786417,77.62119266,0.0
152282725031,-0.4679184,-0.9305099,9.79608,6.317139E-4,-0.007754517,-0.0014724731,12.92786417,77.62119266,0.0
152282725052,-0.46217194,-1.1440674,9.772993,2.609253E-4,-0.0037353516,-4.577637E-6,12.92786417,77.62119266,0.0
152282725074,-0.46935272,-1.255574,9.758275,1.8310548E-5,-0.005314636,-0.0012344361,12.92786423,77.62119282,0.0
152282725095,-0.3638321,-1.0677353,9.845015,3.8604735E-4,-0.0051986696,-0.0011047364,12.92786423,77.62119282,0.0
152282725116,-0.416951,-1.0499115,9.800031,2.6245118E-4,-0.0027557374,-7.4310304E-4,12.92786423,77.62119282,0.0
152282725138,-0.38536376,-1.1277969,9.835203,7.522583E-4,-0.0054397583,-8.605957E-4,12.92786423,77.62119282,0.0
152282725159,-0.4687561,-0.93230134,9.809122,1.9836425E-5,-0.012277221,-0.0011108399,12.92786423,77.62119282,0.0
152282725180,-0.38094026,-0.97178495,9.816539,1.4190674E-4,-0.011174011,-0.0018402099,12.92786423,77.62119282,0.0
152282725201,-0.4238922,-1.0179703,9.687208,6.286621E-4,-0.0064208983,-0.0013458251,12.92786423,77.62119282,0.0
152282725222,-0.3890732,-1.1889359,9.791893,-4.6539307E-4,-0.010809327,-8.605957E-4,12.92786423,77.62119282,0.0
152282725244,-0.29204407,-1.1106888,9.7254925,1.8310548E-5,-0.0028762817,-4.9591064E-4,12.92786423,77.62119282,0.0
152282725265,-0.25938264,-1.2176483,9.814865,7.522583E-4,0.007258606,-1.3122559E-4,12.92786423,77.62119294,0.0
152282725286,-0.3574875,-0.9909271,9.832811,6.30188E-4,0.009089661,3.6010743E-4,12.92786423,77.62119294,0.0
152282725307,-0.38010103,-1.0719254,9.849203,5.0811766E-4,0.00639801,-1.0681152E-5,12.92786423,77.62119294,0.0
152282725329,-0.49687043,-0.969989,9.783638,3.845215E-4,0.0050598145,-1.3122559E-4,12.92786423,77.62119294,0.0
152282725350,-0.4204193,-1.1055435,9.8049345,0.0013626099,0.006401062,-1.0681152E-5,12.92786423,77.62119294,0.0
152282725371,-0.47437897,-1.1462219,9.68936,5.0811766E-4,0.005180359,-2.548218E-4,12.92786423,77.62119294,0.0
152282725393,-0.4470993,-1.2238693,9.8780365,5.0354004E-4,0.005665588,-2.4871825E-4,12.92786423,77.62119294,0.0
152282725414,-0.47425994,-1.0730026,9.785673,0.0011169433,0.012394714,1.1291504E-4,12.92786423,77.62119294,0.0
152282725435,-0.49699402,-1.0573288,9.896101,9.94873E-4,0.009701538,7.247925E-4,12.92786423,77.62119294,0.0
152282725456,-0.6000015,-0.99032897,9.783279,2.6397704E-4,-0.0011672974,-0.0015960693,12.92786423,77.62119294,0.0
152282725477,-0.52032167,-0.9516861,9.781604,9.994507E-4,-0.010203552,-0.0015960693,12.92786423,77.62119294,0.0
152282725499,-0.5468796,-1.0329208,9.663519,6.286621E-4,-0.0025146485,-6.225586E-4,12.92786423,77.62119294,0.0
152282725520,-0.55047,-1.1642883,9.81391,1.4038086E-4,-0.0032470704,-8.6364744E-4,12.92786423,77.62119294,0.0
152282725541,-0.5152985,-1.1780456,9.6823015,-1.05285646E-4,-0.023272704,-0.001348877,12.92786423,77.62119294,0.0
152282725563,-0.49052888,-1.1378434,9.849798,1.9836425E-5,-0.034503173,-0.0035461425,12.92786423,77.62119294,0.0
152282725584,-0.3925415,-0.977887,9.834845,-7.141113E-4,-0.022415161,-0.0030578612,12.92786423,77.62119294,0.0
152282725605,-0.30126038,-1.0585251,9.83975,1.8310548E-5,-0.0033615113,-7.4005127E-4,12.92786423,77.62119294,0.0
152282725626,-0.46684113,-0.9558716,9.744756,7.5073243E-4,0.002494812,-3.7231445E-4,12.92786423,77.62119294,0.0
152282725647,-0.36706084,-1.0939392,9.787706,1.6784668E-5,0.0027420043,-2.548218E-4,12.92786423,77.62119294,0.0
152282725669,-0.42329255,-1.1300704,9.750977,1.6784668E-5,0.008474732,8.4228517E-4,12.92786437,77.62119293,0.0
152282725690,-0.3784256,-1.2544953,9.764494,0.0012390136,0.009214783,-0.0017166138,12.92786437,77.62119293,0.0
152282725711,-0.46767884,-1.1657226,9.805895,1.6784668E-5,0.010682678,5.9814454E-4,12.92786437,77.62119293,0.0
152282725732,-0.435376,-1.1752945,9.68601,0.0012390136,0.0045684814,-4.928589E-4,12.92786437,77.62119293,0.0
152282725754,-0.484787,-1.0976455,9.848964,2.5787353E-4,-0.00532074,-0.0018371582,12.92786437,77.62119293,0.0
152282725775,-0.4673187,-1.142514,9.749181,3.8146973E-4,-0.009715271,-0.0011016845,12.92786457,77.6211929,0.0
152282725796,-0.4326233,-0.94283295,9.652395,0.0040512085,-8.010864E-4,-4.9591064E-4,12.92786457,77.6211929,0.0
152282725817,-0.67800903,-0.41940156,10.679751,0.016758729,-0.016062927,-0.0040390017,12.92786457,77.6211929,0.0
152282725839,-0.43765107,-0.34821472,9.644855,0.0071014403,-0.027055359,-0.0020828247,12.92786457,77.6211929,0.0
152282725860,-0.33475646,-0.66992795,9.442302,0.0029510497,-0.010325623,0.0062194825,12.92786457,77.6211929,0.0
152282725881,-0.25723115,-0.39715117,9.78627,0.0051559447,0.03780365,0.014894104,12.92786472,77.62119286,0.0
152282725902,-0.45475617,-0.48436585,9.83341,0.017851258,0.04134369,-0.0072158813,12.92786472,77.62119286,0.0
152282725924,-0.49759063,-0.53521425,9.59592,-0.0027893067,-0.024981689,-0.041668702,12.92786472,77.62119286,0.0
152282725945,-0.59868777,-0.07040558,9.78268,0.042778015,-0.052342225,-0.016377259,12.92786472,77.62119286,0.0
152282725966,-0.41850892,-0.36855468,10.445616,0.023719788,-0.021562194,0.036262512,12.92786445,77.62119284,0.0
152282725988,-0.3603592,-0.28827515,10.084892,-0.015979003,0.011416626,0.06399689,12.92786445,77.62119284,0.0
152282726009,-0.40331268,-0.24951172,10.080829,0.027388,0.009460449,0.014767456,12.92786445,77.62119284,0.0
152282726030,-0.7860428,-0.5063797,9.880069,-0.05470581,0.035481263,0.06619263,12.92786445,77.62119284,0.0
152282726051,-0.36969146,-0.32560426,9.853269,-0.011096192,0.048797607,0.08635559,12.92786445,77.62119284,0.0
152282726072,-0.435495,-0.9825546,9.919431,-0.027220154,0.048921205,-0.011367798,12.92786422,77.62119283,0.0
152282726094,-0.016270448,-1.5829117,9.074163,-0.008901978,0.077264406,-0.066467285,12.92786422,77.62119283,0.0
152282726115,-0.42819673,-0.7433899,10.091118,0.0497406,-0.007762146,-0.2623108,12.92786422,77.62119283,0.0
152282726136,-0.6236893,-1.3645691,9.528563,-0.002786255,-0.10292359,-0.28882295,12.92786422,77.62119283,0.0
152282726157,-0.8242096,-1.1459793,9.917158,0.044244386,-0.07702484,-0.16567078,12.92786422,77.62119283,0.0
152282726179,-0.52474517,-1.1816361,9.474965,-0.012075806,-0.036834717,-0.083818056,12.92786408,77.62119283,0.0
152282726200,-0.6282364,-0.13226013,9.972794,0.05389557,-0.058576964,-0.021508789,12.92786408,77.62119283,0.0
152282726221,-0.889891,-0.6972076,10.218175,-0.013900757,-0.053199768,0.03907776,12.92786408,77.62119283,0.0
152282726243,-1.1888764,-0.1948349,9.8761215,-0.0068176268,-0.013140869,0.26460266,12.92786408,77.62119283,0.0
152282726264,-0.12287445,-0.52875364,10.045415,-0.00803833,0.047703553,0.32019502,12.92786408,77.62119283,0.0
152282726285,-0.014118957,-0.29449615,9.235922,-0.0031539917,0.06431427,0.24822846,12.92786398,77.62119284,0.0
152282726306,0.14727478,-0.057847597,10.249881,0.037042238,0.019848634,0.036514282,12.92786398,77.62119284,0.0
152282726327,-0.40295258,-0.49669036,9.652273,0.015541077,-0.013134765,-0.042399596,12.92786398,77.62119284,0.0
152282726349,-0.06257477,-0.15870209,9.668425,-0.008161927,-0.01826172,-0.058406066,12.92786398,77.62119284,0.0
152282726370,-0.5909073,0.45648956,10.646968,-0.0041275024,-0.05282898,-0.051074218,12.92786392,77.62119291,0.0
152282726391,-1.7199615,0.27176818,11.497141,0.031170655,-0.04538269,0.021975707,12.92786392,77.62119291,0.0
152282726412,-0.0742981,0.26135558,10.69339,-0.019525146,-0.0071456907,0.1026001,12.92786392,77.62119291,0.0
152282726434,-0.47509462,-0.5819931,9.048924,0.008082581,0.03401184,0.1300888,12.92786392,77.62119291,0.0
152282726455,0.16988984,-0.41892242,9.011835,-0.0071899416,0.05026245,0.09197388,12.92786392,77.62119291,0.0
152282726476,-0.2757736,0.07854309,10.790419,0.0095474245,0.050019838,-0.016990662,12.92786392,77.62119291,0.0
152282726498,-0.21391907,-0.28588256,9.311293,-0.013658142,0.054901123,-0.0031799315,12.92786392,77.62119291,0.0
152282726519,-0.32769927,-0.35515594,10.085614,-0.025630187,0.065533444,-0.054742433,12.92786392,77.62119291,0.0
152282726540,-0.2411972,-0.21469574,9.746431,0.027384948,0.032302856,-0.12107849,12.92786392,77.62119291,0.0
152282726561,-0.32219544,-0.60185546,10.015982,0.033740234,-0.016430665,-0.15528412,12.92786392,77.62119291,0.0
152282726583,-0.2218155,-1.0986068,9.668902,0.0020950318,-0.079833984,-0.15430756,12.92786392,77.62119291,0.0
152282726604,-0.06604157,-2.2960906,10.125099,0.02445221,-0.15887757,-0.13353729,12.92786392,77.62119291,0.0
152282726625,-0.73352206,-1.7945557,8.850557,-0.0047439574,-0.20102692,-0.017359924,12.92786392,77.62119291,0.0
152282726646,-1.4735016,-2.0838485,10.849281,-0.10015869,-0.13982086,0.1716278,12.92786392,77.62119291,0.0
152282726668,-0.9631134,-2.1320648,9.128245,0.105084226,0.0015258789,0.38811493,12.92786255,77.62119404,0.0
152282726689,-0.73615265,-1.4587234,11.358594,-0.011947632,0.13761902,0.38677368,12.92786255,77.62119404,0.0
152282726710,0.45523223,-1.0113846,8.799591,-0.0070648193,0.17524567,0.2102356,12.92786255,77.62119404,0.0
152282726731,0.43800506,-1.0418915,10.85132,0.23581085,0.077755734,-0.089559935,12.92786255,77.62119404,0.0
152282726753,-0.5977295,-0.79902345,9.682663,-0.041268922,0.059916686,-0.11130829,12.92786255,77.62119404,0.0
152282726774,-0.5004593,-0.6056839,9.409042,-0.01720276,0.059913635,-0.06463623,12.92783075,77.62119026,2.92
152282726795,-0.28187713,-0.68536377,10.088484,-0.16281891,0.07164154,-0.09737702,12.92783075,77.62119026,2.92
152282726816,-0.11377716,-0.53509676,9.365252,0.17911987,0.037924193,-0.19792327,12.92783075,77.62119026,2.92
152282726837,-0.41335908,-1.5013168,10.119234,-0.0011978149,-0.017655944,-0.26475525,12.92783075,77.62119026,2.92
152282726859,0.19501495,-1.9990219,9.422323,-0.08512421,-0.082522586,-0.29957277,12.92783075,77.62119026,2.92
152282726880,-0.6151978,-1.9085739,9.114723,0.037524413,-0.14849396,-0.25852355,12.92779152,77.62117938,3.02
152282726901,-0.9178864,-1.8525817,10.243898,-0.010118103,-0.09046173,-0.009053039,12.92779152,77.62117938,3.02
152282726923,-0.28905487,-2.1112473,9.164973,-0.041390993,-0.026205445,0.09820099,12.92779152,77.62117938,3.02
152282726944,-0.17001191,-2.311168,9.83341,0.029582214,-0.044282533,0.014039611,12.92779152,77.62117938,3.02
152282726965,-0.5034515,-2.118187,9.830539,-0.041514587,-0.08154602,0.021609496,12.92779152,77.62117938,3.02
152282726986,-0.43717042,-2.2166505,9.980566,0.0012435913,-0.073114015,0.1297226,12.9277578,77.62116815,2.67
152282727007,-1.0225723,-0.7351349,10.009641,0.12695464,-0.039151,0.29257813,12.9277578,77.62116815,2.67
152282727029,-0.7325653,-0.82809603,9.386432,0.052433778,0.00982666,0.4124298,12.9277578,77.62116815,2.67
152282727050,-0.25160676,-0.60137635,9.105032,-0.041879274,0.07469635,0.41707,12.9277578,77.62116815,2.67
152282727071,-0.0731018,-1.2083161,9.001187,0.003565979,0.11513825,0.32800752,12.92773023,77.62116381,1.82
152282727092,-0.33069,-0.12711792,11.0933485,-0.20362854,0.082148746,0.09160767,12.92773023,77.62116381,1.82
152282727113,-0.58492583,-0.14889221,9.206612,0.039486695,0.04586334,-0.032380678,12.92773023,77.62116381,1.82
152282727135,-0.5416153,-0.388414,8.92701,0.047549438,0.052464295,-0.025419617,12.92773023,77.62116381,1.82
152282727156,-0.52821654,-0.116471864,9.615067,-0.033813477,0.074575804,-0.1103241,12.92773023,77.62116381,1.82
152282727178,-0.6824371,0.28935242,11.169085,0.039607238,0.10572968,-0.16273956,12.92770271,77.62115709,2.05
152282727198,-0.107437134,0.60963285,8.560306,0.055604555,0.10731812,-0.19365081,12.92770271,77.62115709,2.05
152282727220,0.11641083,-0.5573486,11.057098,0.02787323,0.08715515,-0.38142854,12.92770271,77.62115709,2.05
152282727241,-0.04989319,0.0896698,9.219652,0.025436401,-0.051977538,-0.42455444,12.92770271,77.62115709,2.05
152282727262,-0.8045883,-0.1521225,10.294504,0.20087127,-0.15166779,-0.3963333,12.92770271,77.62115709,2.05
152282727283,-0.75828856,-0.3037079,9.44697,-0.06496735,-0.16474,-0.14074555,12.92767266,77.62114288,2.71
152282727305,-0.4655243,0.2599182,9.808525,0.042781066,-0.0984024,-0.013082886,12.92767266,77.62114288,2.71
152282727326,-0.62655944,0.1803604,9.958911,0.025674438,-0.088264465,0.029914856,12.92767266,77.62114288,2.71
152282727347,-0.51254576,0.06729736,9.672012,-0.025265504,-0.04855957,0.08818512,12.92767266,77.62114288,2.71
152282727368,-0.4563156,0.0095123295,9.831614,0.009545898,-0.025956726,0.07474518,12.9276375,77.62112076,3.49
152282727390,-0.053599548,-0.1609787,9.442183,-0.04615326,-0.036096193,0.058009338,12.9276375,77.62112076,3.49
152282727411,-0.61615294,-0.34630126,9.13004,-0.25567323,-0.027545165,0.07927094,12.9276375,77.62112076,3.49
152282727433,-0.37639314,-0.049949646,9.491595,0.16776428,0.021798706,0.14096527,12.9276375,77.62112076,3.49
152282727454,0.0071762083,-1.0686935,10.530797,0.028002929,0.123687744,0.10687713,12.9276375,77.62112076,3.49
152282727475,0.1901062,-0.23407593,8.884298,-0.085128784,0.053678893,-0.042402647,12.92759256,77.62109695,4.66
152282727496,-0.13878784,-0.41234285,10.276918,0.021037292,-0.050512694,-0.09688721,12.92759256,77.62109695,4.66
152282727518,-0.5863632,-1.1166703,9.09032,-0.102105714,-0.10610046,-0.01613617,12.92759256,77.62109695,4.66
152282727538,-0.050131224,-1.9755722,9.137697,-0.05666504,-0.06517639,0.0642395,12.92759256,77.62109695,4.66
152282727560,0.041751098,-2.1301484,8.768964,0.13416138,-0.030725097,0.08159027,12.92759256,77.62109695,4.66
152282727581,-0.38919678,-1.7985061,10.725695,0.022007752,-0.016679382,0.063259885,12.92748934,77.6210511,5.47
152282727603,-0.8041092,-1.7828324,9.484057,-0.022328187,0.0048217773,0.12617798,12.92748934,77.6210511,5.47
152282727624,-0.28367004,-2.233879,10.402306,0.05292053,0.12930909,0.19214936,12.92748934,77.6210511,5.47
152282727645,0.060058594,-2.6450882,6.378293,-0.1504898,0.18282013,0.05569,12.92748934,77.6210511,5.47
152282727666,0.6044281,-1.8641876,10.161825,-0.14987488,0.051364135,-0.14404602,12.92748934,77.6210511,5.47
152282727687,-0.21822815,-2.0048873,8.228304,0.08798981,-0.1681656,-0.24264526,12.92743934,77.62103222,5.39
152282727709,-1.5025742,-1.3222153,13.005214,0.156279,-0.18587951,0.050071716,12.92743934,77.62103222,5.39
152282727730,-0.36586303,-1.6159347,10.627947,0.18022156,-0.089978024,0.17956848,12.92743934,77.62103222,5.39
152282727751,-0.62153625,-0.7597809,9.349106,-0.033940125,0.047453307,0.19825593,12.92743934,77.62103222,5.39
152282727804,-0.5444916,-0.70043945,9.380804,-0.103327945,0.06162567,0.13876343,12.92740707,77.62101729,4.9
152282727825,-0.30580443,-0.6425308,10.6766405,0.07088318,0.028884888,0.041273497,12.92740707,77.62101729,4.9
152282727847,-0.4589447,-1.0633103,9.773588,-0.0131698605,0.008976745,0.029797364,12.92740707,77.62101729,4.9
152282727868,-0.42054138,-1.1880935,9.203977,-0.010609436,0.066389464,0.10602264,12.92740707,77.62101729,4.9
152282727890,-0.5462845,-0.7461411,10.551137,-0.013296509,0.11977844,0.050679017,12.92740707,77.62101729,4.9
152282727910,-0.28534546,-0.28444824,9.512411,0.065257266,0.14408875,-0.001600647,12.92735382,77.62099206,5.24
152282727932,0.10683899,-0.8706894,10.445013,-0.009866333,0.09216919,-0.14233856,12.92735382,77.62099206,5.24
152282727953,-0.31788635,-0.46019897,9.257456,0.0045425417,-0.0701828,-0.20232391,12.92735382,77.62099206,5.24
152282727974,-0.5282196,-0.8808578,9.962143,0.022012329,-0.13040924,-0.11387329,12.92735382,77.62099206,5.24
152282727995,-0.9221939,-0.5925232,9.6371975,0.021524047,-0.05931244,0.03248291,12.92735382,77.62099206,5.24
152282728017,-0.64821625,-0.72879183,9.970159,0.00783844,0.010679627,0.04029541,12.92729494,77.62096745,5.43
152282728038,-0.23258361,-0.81278384,9.603462,-0.015742492,0.016789246,-0.001348877,12.92729494,77.62096745,5.43
152282728060,-0.3397827,-0.73310244,9.809842,0.009790039,-0.00605011,-0.05510559,12.92729494,77.62096745,5.43
152282728080,-0.45990294,-0.65808564,9.881145,-0.0011978149,-0.025471497,-0.033117674,12.92729494,77.62096745,5.43
152282728102,-0.39278412,-0.59706724,9.804576,8.758545E-4,-0.060531616,-0.054127503,12.92723846,77.62095105,5.6
152282728123,-0.5675796,-0.74063873,9.775503,-0.04493103,-0.110621646,-0.025784303,12.92723846,77.62095105,5.6
152282728144,-0.6335007,-0.6957733,9.748583,0.018955994,-0.115507506,0.047621153,12.92723846,77.62095105,5.6
152282728166,-0.79872435,-0.6272186,9.951857,-0.01231842,-0.07482453,0.11078949,12.92723846,77.62095105,5.6
152282728187,-0.5615967,-0.7610962,9.694986,0.013700867,0.038656615,0.17785797,12.92723846,77.62095105,5.6
152282728208,-0.56207734,-0.80619967,9.922183,-0.00254364,0.13493042,0.13998565,12.92717947,77.62093241,5.9
152282728229,-0.2991043,-0.7908859,9.590775,-0.042614747,0.1363922,0.031015014,12.92717947,77.62093241,5.9
152282728250,0.019140625,-0.77964175,9.623915,-0.005722046,0.077626035,-0.039834596,12.92717947,77.62093241,5.9
152282728272,-0.1420166,-0.6814194,9.882225,-0.014028931,0.027174378,-0.053639222,12.92717947,77.62093241,5.9
152282728293,-0.26716155,-0.6830902,9.903758,-0.018057251,-0.00446167,-0.041668702,12.92717947,77.62093241,5.9
152282728314,-0.24382782,-1.7243271,9.403181,-0.005845642,-0.0023849488,-0.013076782,12.92712176,77.62092129,5.93
152282728335,-0.73041075,-0.6929016,11.808444,-0.0077926638,0.020454407,-0.008558655,12.92712176,77.62092129,5.93
152282728357,-0.18628387,-1.5057418,9.936661,0.0063690185,0.05319519,-0.018701172,12.92712176,77.62092129,5.93
152282728378,-0.50117797,-1.9179077,9.069025,0.038743593,0.024853516,-0.07196655,12.92712176,77.62092129,5.93
152282728399,-0.5155365,-1.5757339,11.2458935,0.027999878,-0.04355011,-0.10299835,12.92712176,77.62092129,5.93
152282728420,-1.07043,-0.62303007,10.447647,-0.006939697,-0.039154053,-0.051075745,12.9270994,77.62092664,5.1
152282728442,-0.7533814,-1.491983,8.840147,0.03752594,0.04073181,0.03211975,12.9270994,77.62092664,5.1
152282728463,-0.1777893,-0.7482956,9.903519,0.0012435913,0.08789215,-0.027864074,12.9270994,77.62092664,5.1
152282728485,-0.35880584,-0.8897095,9.620809,-0.0010803223,0.008483887,-0.14282684,12.9270994,77.62092664,5.1
152282728505,-0.18352814,-0.3154358,10.122942,0.048158266,-0.070552066,-0.1293869,12.92705318,77.62091647,5.16
152282728527,-1.1141021,-0.9344559,10.3277645,-0.047250368,-0.09766998,-0.07953949,12.92705318,77.62091647,5.16
152282728548,-0.5828918,-1.0201203,9.263797,0.019322205,-0.0845993,0.024664307,12.92705318,77.62091647,5.16
152282728570,-0.56590426,-0.6726807,10.230858,-0.051654052,-0.035365295,0.024908448,12.92705318,77.62091647,5.16
152282728590,-0.745842,-0.8499924,9.825991,-0.024778748,-0.03902893,0.0123321535,12.92705318,77.62091647,5.16
152282728612,-0.78137815,-1.6397415,9.178856,0.041801453,-0.049171448,0.024168396,12.92699596,77.62090312,5.19
152282728633,-0.52761996,-0.92823637,9.874327,-0.029541016,-0.023149109,0.040171813,12.92699596,77.62090312,5.19
152282728654,-0.8048264,-1.4772689,10.380529,0.026898194,-0.035121154,0.034432985,12.92699596,77.62090312,5.19
152282728675,-0.46803895,-2.2642684,10.475046,-0.0096344,-0.053685,0.02759552,12.92699596,77.62090312,5.19
152282728697,-0.23581238,-1.5300308,9.008604,0.029092407,-0.11648407,0.022717286,12.92699596,77.62090312,5.19
152282728718,-0.79645383,-1.8206375,9.566011,-0.01378479,-0.09913635,0.11041717,12.92692944,77.62087578,5.84
152282728739,-0.6582657,-1.7070984,9.848366,0.0075942995,0.02118988,0.22513428,12.92692944,77.62087578,5.84
152282728760,-0.30424958,-1.5435517,9.858416,-0.008538818,0.11867829,0.18078765,12.92692944,77.62087578,5.84
152282728782,-0.2518448,-1.8887116,9.714007,-0.014149475,0.17817077,0.12691192,12.92692944,77.62087578,5.84
152282728803,-0.014718628,-1.598822,9.331037,-0.028808594,0.17670898,0.005241394,12.92689482,77.62086076,5.55
152282728824,-0.08997345,-1.4891144,8.394605,0.0024627685,0.10963593,-0.10385132,12.92689482,77.62086076,5.55
152282728845,0.34552154,-1.0137771,9.761864,0.058659364,0.005799866,-0.14783326,12.92689482,77.62086076,5.55
152282728867,-0.40797576,-0.7853821,8.888484,-0.018299866,-0.08398895,-0.11838837,12.92689482,77.62086076,5.55
152282728888,-0.79083097,-0.3847046,9.570915,-0.010238647,-0.039886475,0.0024322509,12.92689482,77.62086076,5.55
152282728909,-0.5069214,-0.84783477,9.87337,-0.010116577,0.042811584,0.028448487,12.92683977,77.62083858,5.74
152282728930,-0.34085998,-0.60867614,9.754924,0.020913696,0.064315796,-0.02822876,12.92683977,77.62083858,5.74
152282728952,-0.13591309,-1.3907684,9.526411,0.047174074,0.04977417,-0.07013397,12.92683977,77.62083858,5.74
152282728973,-0.60897523,-0.5934814,10.0768795,-0.001083374,0.029985046,-0.09151459,12.92683977,77.62083858,5.74
152282728994,-0.22349243,-0.67674863,9.672495,0.05633545,-0.019732665,-0.1182663,12.92683977,77.62083858,5.74
152282729015,-0.54939425,-0.4935791,10.241984,-0.008163452,-0.102069095,-0.13488618,12.92676306,77.62079624,5.91
152282729036,-0.7852036,-0.66347045,9.720947,0.017857362,-0.19247589,-0.10140991,12.92676306,77.62079624,5.91
152282729058,-1.0613358,-1.0207169,9.426985,1.4648438E-4,-0.18587646,0.03150635,12.92676306,77.62079624,5.91
152282729079,-0.86500853,-0.86697847,9.373987,-0.007676697,-0.0839859,0.12678985,12.92676306,77.62079624,5.91
152282729100,-0.7252655,-0.79088897,9.578096,0.006497192,0.013252258,0.14536133,12.92671921,77.62077021,5.32
152282729122,-0.21858521,-0.4862793,9.840108,0.005278015,0.09326782,0.12593536,12.92671921,77.62077021,5.32
152282729143,-0.32889557,-0.5388031,9.6410265,0.005029297,0.0985199,0.04079132,12.92671921,77.62077021,5.32
152282729165,-0.18281403,-0.55136716,9.839151,-0.009510803,0.048181154,-0.009906006,12.92671921,77.62077021,5.32
152282729185,-0.42939606,-0.6979233,9.478314,-0.006088257,0.022285461,-0.01576538,12.92671921,77.62077021,5.32
152282729207,-0.42173767,-0.60687864,9.586711,-0.026855469,0.023753356,-1.3427735E-4,12.92666226,77.6207552,5.74
152282729228,-0.41718903,-0.87774503,9.940967,0.022131348,0.04513092,-0.0028182983,12.92666226,77.6207552,5.74
152282729249,-0.42029876,-0.7186249,9.976858,0.0095474245,0.011169434,-0.036172487,12.92666226,77.6207552,5.74
152282729270,-0.4612198,-0.785025,9.877675,0.023353577,-0.05332031,-0.06439209,12.92666226,77.6207552,5.74
152282729291,-0.47425994,-0.8554947,9.684934,-0.017575074,-0.098278806,-0.030549621,12.92666226,77.6207552,5.74
152282729313,-0.7707306,-0.614534,9.540525,0.021638488,-0.08313141,0.022837829,12.92660115,77.62073062,6.49
152282729335,-0.7092331,-0.84017944,9.859131,-0.01452179,-0.0241333,0.07767334,12.92660115,77.62073062,6.49
152282729355,-0.49902496,-1.2848861,9.430341,-0.021966552,0.036582947,0.06863861,12.92660115,77.62073062,6.49
152282729377,-0.13842468,-1.6781448,9.781843,-0.001574707,0.06980896,0.056666564,12.92660115,77.62073062,6.49
152282729398,-0.1494339,-1.8974488,9.071655,-0.014884949,0.08728027,0.013424682,12.92660115,77.62073062,6.49
152282729419,-0.44338837,-1.6646255,10.180845,0.021766663,0.06724548,-0.019432068,12.92653961,77.62071247,6.66
152282729440,-0.75840455,-1.4553726,11.143956,-0.0705841,0.03120575,-0.06573486,12.92653961,77.62071247,6.66
152282729461,-0.37447968,-1.7502884,8.6765995,0.045466613,-0.060165405,-0.08540497,12.92653961,77.62071247,6.66
152282729483,-0.6114868,-2.2849655,10.069941,-0.023062134,-0.07421265,-0.029695129,12.92653961,77.62071247,6.66
152282729504,-0.41048735,-1.2266204,9.03361,0.006866455,-0.0038513183,0.041769408,12.92646985,77.62067845,7.01
152282729525,-0.5618347,-1.6544586,10.028784,-0.037608337,0.04329834,9.689331E-4,12.92646985,77.62067845,7.01
152282729547,-0.09212341,-1.3299881,9.199674,-0.00425415,0.0252182,-0.038858034,12.92646985,77.62067845,7.01
152282729568,-0.68650055,-1.538765,10.774149,0.10764923,-0.016557312,-0.054129027,12.92646985,77.62067845,7.01
152282729589,-0.48742065,-1.6747955,9.405573,-0.062893674,-0.024980163,-0.022729492,12.92646985,77.62067845,7.01
152282729610,-0.54472655,-1.2566513,9.095225,0.046929933,-0.016674805,-0.0051361085,12.92639313,77.6206322,7.36
152282729631,-0.91118777,-1.0781463,10.600906,-0.04407959,0.04159088,0.028820802,12.92639313,77.6206322,7.36
152282729653,-0.24741974,-0.31950226,10.227267,0.050961304,0.057836913,-0.03568268,12.92639313,77.6206322,7.36
152282729674,-0.44829863,-1.3984238,10.522421,-0.014762878,0.02375183,-0.06035919,12.92639313,77.6206322,7.36
152282729695,-0.58038175,-0.698645,9.732912,0.042901613,-0.01411438,-0.06915436,12.92639313,77.6206322,7.36
152282729716,-0.4687546,-0.99260104,10.097694,0.0012435913,-0.047579955,-0.06793366,12.92635717,77.62062594,6.53
152282729738,-0.5367111,-1.1170304,9.330917,0.009669495,-0.065907285,-0.04521332,12.92635717,77.62062594,6.53
152282729759,-0.50835574,-0.914357,9.50296,0.0060058595,-0.039881896,9.6588134E-4,12.92635717,77.62062594,6.53
152282729780,-0.43800658,-0.92500305,10.287928,0.015783692,-0.054911803,-0.023222351,12.92635717,77.62062594,6.53
152282729801,-0.38225403,-1.126004,10.038234,0.026533509,-0.060778808,0.024909973,12.92629163,77.62059862,6.75
152282729823,-0.65539396,-0.6299698,10.518353,0.009913635,0.011663819,0.06851654,12.92629163,77.62059862,6.75
152282729844,-0.3994812,-0.84664,9.940727,-0.010362243,0.07200928,0.034318544,12.92629163,77.62059862,6.75
152282729865,-0.14500579,-0.7997421,10.126169,-0.0026748658,0.035235595,-0.041053772,12.92629163,77.62059862,6.75
152282729887,-0.49053344,-0.7033142,9.689482,-0.015863037,-0.049656678,-0.0569397,12.92629163,77.62059862,6.75
152282729908,-0.3416977,-1.2322448,9.512053,0.0012451172,-0.089486696,-0.020413209,12.92623013,77.6205818,6.84
152282729929,-0.6915268,-0.9023941,9.607409,-0.030639648,-0.06969605,0.033946227,12.92623013,77.6205818,6.84
152282729950,-0.6297943,-0.89581144,9.937021,0.010282898,-0.003239441,0.06277466,12.92623013,77.6205818,6.84
152282729972,-0.445784,-0.82869416,9.858055,0.014805603,0.0371933,0.049703978,12.92623013,77.6205818,6.84
152282729917,-0.24323273,-0.81266177,9.488004,-0.046154786,0.022535706,0.0097640995,12.92623013,77.6205818,6.84
152282729938,-0.28534395,-1.2189652,9.807688,0.020542908,0.007749939,-0.004774475,12.92616536,77.62053355,7.13
152282729959,-0.2563919,-1.3709061,10.218893,0.0017288208,-0.02974243,-0.013078308,12.92616536,77.62053355,7.13
152282729981,-0.05419922,-1.4201996,8.495581,-0.01916046,-0.050390624,0.009155273,12.92616536,77.62053355,7.13
152282730002,-0.9269806,-1.3565521,11.582921,0.058416747,-0.03903351,0.020759583,12.92616536,77.62053355,7.13
152282730024,-0.38955384,-1.988617,9.385114,-0.033573914,-0.009959412,0.051412962,12.92604622,77.62046827,8.78
152282730044,-0.41407928,-2.0024917,9.044975,0.0025863647,0.01361084,0.050193787,12.92604622,77.62046827,8.78
152282730066,-0.7878372,-2.6289368,9.853391,-0.024531554,0.0568573,0.055078126,12.92604622,77.62046827,8.78
152282730087,-0.20231628,-2.0234268,9.42603,0.025552368,0.049038697,0.0068344115,12.92604622,77.62046827,8.78
152282730108,-0.437529,-2.5250869,9.890119,0.0121154785,0.01300354,-0.015159607,12.92604622,77.62046827,8.78
152282730129,-0.6303879,-2.0986862,9.481667,-0.01744995,0.018988037,0.017581176,12.92603693,77.62046913,7.03
152282730151,-0.48119965,-2.0265381,9.895862,-0.014030457,0.05380554,0.019410705,12.92603693,77.62046913,7.03
152282730216,-0.1174881,-2.0793045,9.920509,0.11119537,0.04598999,-0.049118042,12.92603693,77.62046913,7.03
152282730238,-0.59210664,-1.1760132,10.162901,-0.0781662,-0.0127685545,-0.037757874,12.92603693,77.62046913,7.03
152282730258,-0.37232512,-1.6105484,9.11616,-0.0852417,-0.036953736,-0.03628998,12.92603693,77.62046913,7.03
152282730279,-0.47258455,-1.6765915,9.548544,0.06000824,-0.012037659,0.008909607,12.9259063,77.62041835,8.67
152282730301,0.004664612,-1.127559,10.344996,-9.5062255E-4,0.030349731,0.021244813,12.9259063,77.62041835,8.67
152282730322,-0.7174881,-0.48915252,9.960347,0.12524872,0.05148468,-0.022972107,12.9259063,77.62041835,8.67
152282730343,-0.3975708,-0.9479782,9.4713745,-0.089523315,0.029135132,-0.055595398,12.9259063,77.62041835,8.67
152282730365,-0.18867493,-0.53940123,9.717596,-0.03271637,-0.063583374,-0.10494995,12.9259063,77.62041835,8.67
152282730386,-1.0424331,-1.1934783,10.315805,0.09702148,-0.11171875,-0.060112,12.92583439,77.62039095,7.42
152282730407,-0.60012054,-0.14351043,9.908783,-0.044444274,-0.046481322,0.058131408,12.92583439,77.62039095,7.42
152282730428,-0.63493806,-1.2168106,9.304476,0.022987366,0.054660033,0.08427582,12.92583439,77.62039095,7.42
152282730450,-0.40427095,-1.058403,9.880069,-0.045056153,0.15264282,0.05592804,12.92583439,77.62039095,7.42
152282730471,0.2388031,-2.0560927,9.704555,0.03251343,0.1697464,-0.052171327,12.92578851,77.62037018,7.05
152282730492,0.08267059,-0.53389585,9.539212,0.013700867,0.055397034,-0.18571015,12.92578851,77.62037018,7.05
152282730513,0.03601227,-2.0863647,8.609718,0.027876282,-0.08545227,-0.20794526,12.92578851,77.62037018,7.05
152282730535,-1.2341003,-1.3675568,9.829102,0.02433319,-0.13358918,-0.08577118,12.92578851,77.62037018,7.05
152282730556,-0.77671206,-1.6004989,10.476242,-0.019525146,-0.03157959,0.031988524,12.92578851,77.62037018,7.05
152282730577,-0.06197815,-1.859761,9.291433,-0.009138489,0.053437807,-0.009780884,12.92574896,77.62035691,6.44
152282730598,0.16199188,-1.4602798,9.605492,-0.015003967,0.02619629,-0.0978653,12.92574896,77.62035691,6.44
152282730619,-0.25878602,-1.559941,10.039551,0.017608643,-0.03548584,-0.10776214,12.92574896,77.62035691,6.44
152282730641,-0.90867615,-1.7693131,9.783157,-0.022702027,-0.011668396,-0.052908324,12.92574896,77.62035691,6.44
152282730662,-0.01040802,-2.3809159,9.976379,-0.017085265,0.013983155,-0.062805176,12.92574896,77.62035691,6.44
152282730683,-0.033857726,-2.2776687,9.663397,0.012112427,-0.036708068,-0.093344115,12.92567975,77.620312,6.52
152282730705,-0.6113663,-2.0339584,10.11732,-0.0079223635,-0.08374329,-0.094932556,12.92567975,77.620312,6.52
152282730726,-0.9720856,-2.0341995,10.1835985,0.035812378,-0.0071517946,0.051538087,12.92567975,77.620312,6.52
152282730747,-0.7123459,-1.4855225,10.74687,-0.056907654,0.1600937,0.07915039,12.92567975,77.620312,6.52
152282730768,0.25722656,-1.8208786,9.482501,0.06990357,0.1609497,-0.10128784,12.92563408,77.6202721,6.35
152282730789,0.36023712,-1.1356949,10.898933,0.03606262,0.014593506,-0.28857726,12.92563408,77.6202721,6.35
152282730811,-0.055033874,-2.6216354,9.100848,-0.05592499,-0.16450043,-0.28405458,12.92563408,77.6202721,6.35
152282730832,-1.7465225,-0.26387024,10.869143,0.1618988,-0.19907685,-0.042041015,12.92563408,77.6202721,6.35
152282730853,-1.2788452,-1.1292312,9.406291,-0.099543765,-0.06921234,0.10932312,12.92563408,77.6202721,6.35
152282730874,0.6774063,-1.6275375,9.705394,0.009681702,0.07250366,0.02588501,12.9256124,77.62025619,4.97
152282730896,-0.13950348,-0.8459244,13.144359,0.0807785,0.05369873,-0.07099609,12.9256124,77.62025619,4.97
152282730917,-0.078364566,-1.5979874,9.948385,0.16311797,0.065539554,-0.02859497,12.9256124,77.62025619,4.97
152282730938,-0.5048874,-0.3502472,9.280309,-0.12531891,0.020455932,-0.037023924,12.9256124,77.62025619,4.97
152282730959,-0.58875275,-0.7269989,10.272013,0.056954958,5.4321287E-4,-0.0695221,12.9256124,77.62025619,4.97
152282730981,-0.1675003,-1.1652435,10.145912,-0.034190368,-0.043060303,-0.076121524,12.92558466,77.62021433,5.05
152282731002,-0.4810791,-0.871048,8.884415,0.028240968,-0.036099244,-0.02798767,12.92558466,77.62021433,5.05
152282731023,-0.5967697,-0.59575194,10.211835,0.014559937,-0.013748169,-0.0069732666,12.92558466,77.62021433,5.05
152282731044,-0.40570527,-0.8868378,9.518634,-0.025996398,0.011293029,0.006343079,12.92558466,77.62021433,5.05
152282731066,-0.4535614,-1.1063782,9.331873,0.016026307,0.036456298,-0.008801269,12.92558466,77.62021433,5.05
152282731087,-0.6711868,-0.4826935,10.389384,0.0019760132,0.05612793,-0.015644837,12.92555583,77.62017868,4.8
152282731108,-0.40187684,-1.134018,9.251234,-0.01890869,0.07188873,-0.044355772,12.92555583,77.62017868,4.8
152282731129,0.19692536,-0.97178495,10.193052,0.018830871,0.05698242,-0.09908905,12.92555583,77.62017868,4.8
152282731151,-0.25567475,-0.62913513,9.841545,0.0022216798,0.0034759522,-0.12450256,12.92555583,77.62017868,4.8
152282731172,-0.2677597,-1.1456238,9.473528,-0.01292572,-0.039398193,-0.1104538,12.92551802,77.62018224,4.7
152282731193,-0.8560318,-1.2121445,9.978177,0.018222045,-0.05283203,-0.073309325,12.92551802,77.62018224,4.7
152282731214,-0.9614395,-0.992363,10.468104,-0.019041443,-0.02351532,-0.045820616,12.92551802,77.62018224,4.7
152282731236,-0.522113,-0.73621064,9.63002,0.0072280886,0.015206909,-0.02993927,12.92551802,77.62018224,4.7
152282731257,-0.90998995,-0.203331,11.821846,8.8043214E-4,0.05050354,-0.022486877,12.92551802,77.62018224,4.7
152282731278,0.2228897,-2.130629,9.1099415,0.043023683,0.0509964,-0.08418121,12.92548871,77.62014938,4.7
152282731299,-0.29527587,-2.2907073,10.3259735,-0.019770812,0.021064758,-0.113623045,12.92548871,77.62014938,4.7
152282731321,-0.33284456,-2.2253845,9.655264,0.035328675,-0.031697083,-0.12926635,12.92548871,77.62014938,4.7
152282731342,-0.6478592,-1.9591827,9.805774,-0.023065185,-0.058332823,-0.11521149,12.92548871,77.62014938,4.7
152282731363,-0.5810974,-2.6469986,9.603819,0.020054627,-0.06493225,-0.07123566,12.92548871,77.62014938,4.7
152282731384,-0.67657167,-3.234677,9.381045,-0.016471863,-0.04684906,-0.032017518,12.92545482,77.62010117,5.04
152282731406,-0.41766968,-3.1529603,9.239752,-0.0029159547,0.008969116,0.007815552,12.92545482,77.62010117,5.04
152282731427,-0.23605347,-2.8630707,9.589821,0.022129823,0.029612731,-0.03946533,12.92545482,77.62010117,5.04
152282731448,-0.40989226,-3.1161118,9.338335,-0.015620423,0.01703186,-0.081495665,12.92545482,77.62010117,5.04
152282731469,-0.3370331,-2.2841294,9.759351,0.009425354,0.0022521974,-0.07880859,12.92544222,77.62008017,4.5
152282731511,-0.2447876,-1.5975082,9.825394,0.019325256,-0.021191407,-0.121687315,12.92544222,77.62008017,4.5
152282731532,-0.4432724,-1.5943954,10.302641,0.045344543,-0.094248965,-0.13354035,12.92544222,77.62008017,4.5
152282731553,-0.66173553,-1.5281159,8.941843,-0.037358094,-0.106465146,-0.0034362793,12.92544222,77.62008017,4.5
152282731575,-0.681955,-1.4800217,10.674604,-0.030517578,-0.044651795,0.07181549,12.92544222,77.62008017,4.5
152282731596,-0.4145569,-1.1100906,8.951775,0.11192779,-0.046606444,0.103213504,12.92543054,77.62004138,4.22
152282731617,-0.52091825,-0.9940384,10.266149,-0.026974488,-0.035975646,0.11628418,12.92543054,77.62004138,4.22
152282731638,-0.382016,-0.85944366,9.130038,0.06537934,0.02986908,0.17871551,12.92543054,77.62004138,4.22
152282731659,-0.47378236,-0.7156326,9.156837,-0.10625915,0.08838043,0.1249588,12.92543054,77.62004138,4.22
152282731681,0.0692688,-0.68811643,11.440071,-0.17028046,0.12246399,0.0354126,12.92543054,77.62004138,4.22
152282731702,-0.24993439,-0.11551209,9.109103,0.25181884,0.051243592,-0.05315094,12.92539684,77.61999629,4.28
152282731723,-0.28414765,0.22307129,11.614149,-0.046765137,0.03377228,-0.1029953,12.92539684,77.61999629,4.28
152282731744,-0.5041717,0.24089813,10.391176,0.03557434,0.0012741089,-0.095910646,12.92539684,77.61999629,4.28
152282731766,0.23437348,-1.0264603,11.132833,0.033615112,-0.027789306,-0.11728974,12.92539684,77.61999629,4.28
152282731787,-0.8193054,0.017648315,8.879988,-0.022825623,-0.08227539,-0.09004517,12.92537199,77.61995328,4.26
152282731808,-0.89443666,-0.3543152,10.144594,0.03312683,-0.09693756,-0.026760865,12.92537199,77.61995328,4.26
152282731830,-0.7707275,-0.04671936,9.490278,-0.056658935,-0.048313905,0.07890167,12.92537199,77.61995328,4.26
152282731851,-0.4332199,-0.33361968,9.808523,0.010287476,0.027050782,0.09820404,12.92537199,77.61995328,4.26
152282731872,-0.56064147,-0.28097686,9.958551,-0.027954102,0.07470093,0.06582794,12.92537199,77.61995328,4.26
152282731893,-0.16283265,-0.6160904,9.16904,5.065918E-4,0.090336606,0.0015792847,12.92534894,77.61988741,5.02
152282731914,-0.0049087526,-0.46881407,10.350975,-0.017938232,0.02998352,-0.0977417,12.92534894,77.61988741,5.02
152282731936,-0.019384766,-0.6958954,9.495425,0.06708984,-0.100234985,-0.14502105,12.92534894,77.61988741,5.02
152282731957,-0.7024109,-0.65521544,9.937617,-0.047132872,-0.15948792,-0.0331192,12.92534894,77.61988741,5.02
152282731978,-0.7629517,-0.27355805,9.857935,0.037280273,-0.08936767,0.09416962,12.92534894,77.61988741,5.02
152282731999,-0.406662,-0.6851257,10.037279,-0.0153686525,0.024488831,0.12801056,12.92532368,77.61983825,5.25
152282732021,-0.46325225,-0.48149568,9.286649,-0.027592469,0.12051239,0.11139679,12.92532368,77.61983825,5.25
152282732042,-0.36311188,-0.60269165,9.728243,0.0012420655,0.15203246,0.024177551,12.92532368,77.61983825,5.25
152282732063,-0.32638398,-0.13967896,10.36689,0.013946533,0.09937439,-0.066711426,12.92532368,77.61983825,5.25
152282732085,0.00382843,-0.714917,9.922426,0.035324097,0.006037903,-0.11777954,12.92532368,77.61983825,5.25
152282732106,-0.3774704,-0.53521425,9.912254,-0.0054794312,-0.08435516,-0.10458374,12.92530123,77.61978552,5.52
152282732127,-0.7080353,-0.56871337,9.789861,-0.01781311,-0.08362122,-0.01833191,12.92530123,77.61978552,5.52
152282732148,-0.60418856,-0.8399399,9.742963,0.012973023,-0.024247741,0.021490479,12.92530123,77.61978552,5.52
152282732170,-0.3939789,-0.801178,9.601065,-0.020620728,0.017884826,0.016607666,12.92530123,77.61978552,5.52
152282732191,-0.32434845,-0.8739182,10.15967,0.03618164,0.02778473,-0.007461548,12.92528036,77.6197519,5.23
152282732214,-0.42508546,-0.89617,9.479991,-0.011955261,0.014472961,-0.01600952,12.92528036,77.6197519,5.23
152282732233,-0.5015381,-1.1532822,9.6817045,-0.040531922,0.033766173,-0.0028198243,12.92528036,77.6197519,5.23
152282732255,-0.5717667,-1.391127,10.157878,0.029586792,0.028637696,-0.039103698,12.92528036,77.6197519,5.23
152282732276,0.17503205,-1.5764511,8.999632,-0.00841217,-0.020584106,-0.061460875,12.92528036,77.6197519,5.23
152282732297,-0.45547637,-1.6507461,9.752771,0.033006288,-0.03744507,-0.039468385,12.92524803,77.61969973,5.82
152282732318,-0.75661314,-1.1082947,10.959231,-0.011712646,-0.004951477,-0.009292603,12.92524803,77.61969973,5.82
152282732340,-0.051927187,-1.8669373,8.724215,0.017732238,0.023506165,-0.0083145145,12.92524803,77.61969973,5.82
152282732361,-0.6181885,-1.5473785,10.668742,2.1362304E-5,-0.005566406,-0.0515625,12.92524803,77.61969973,5.82
152282732382,-0.2264801,-1.5595825,9.029182,0.01174469,-0.047703553,-0.043011475,12.92524803,77.61969973,5.82
152282732403,-0.9701721,-1.5099319,10.3899765,-0.018185426,-0.04526367,6.011963E-4,12.92520739,77.61961855,6.71
152282732425,-0.35306245,-1.6636689,8.908585,-4.699707E-4,0.012147522,0.04237213,12.92520739,77.61961855,6.71
152282732446,-0.6898529,-1.3481766,10.358034,0.02103424,0.056373596,0.0097640995,12.92520739,77.61961855,6.71
152282732467,-0.28128052,-1.5254837,9.221683,-0.02587738,0.04660187,-0.024317931,12.92520739,77.61961855,6.71
152282732488,-0.42819825,-1.3765304,9.8492,-0.004626465,0.05050659,-0.021385193,12.92517483,77.61955024,6.99
152282732510,-0.27816468,-1.4344361,10.087407,0.05181732,0.04085846,-0.052052308,12.92517483,77.61955024,6.99
152282732531,0.015310669,-1.7939606,9.014946,-0.021720886,-0.015455628,-0.08968048,12.92517483,77.61955024,6.99
152282732552,-0.9148987,-0.976329,9.831375,-0.010606384,-0.05747528,-0.067201234,12.92517483,77.61955024,6.99
152282732573,-0.62572634,-1.006839,9.915243,0.015658569,-0.011915589,-0.007098389,12.92517483,77.61955024,6.99
152282732595,-0.4103729,-0.95001066,9.79967,0.011503601,0.023503114,-0.021876525,12.92513161,77.61947291,6.7
152282732616,-0.47055054,-1.0909485,9.888323,0.019810487,0.011410522,-0.050221253,12.92513161,77.61947291,6.7
152282732637,-0.45093077,-0.9375656,9.99349,0.01920166,-0.018507386,-0.0529068,12.92513161,77.61947291,6.7
152282732658,-0.64331055,-0.8132599,10.062404,0.023228455,-0.024491882,-0.05253906,12.92513161,77.61947291,6.7
152282732680,-0.30257416,-1.0653442,9.401265,-0.022827148,-0.054786682,-0.0515625,12.92513161,77.61947291,6.7
152282732701,-0.5982071,-0.8812195,10.009044,0.026167298,-0.07885285,-0.039590456,12.92510291,77.61943252,6.54
152282732722,-0.5414947,-0.9623321,9.711855,-0.017694091,-0.079589844,0.007322693,12.92510291,77.61943252,6.54
152282732743,-0.59258574,-0.98435056,9.910696,0.004170227,-0.031091308,0.041148376,12.92510291,77.61943252,6.54
152282732765,-0.5706894,-0.85262454,9.832334,-0.01903839,0.024729919,0.048605345,12.92510291,77.61943252,6.54
152282732786,-0.041874696,-1.1172699,9.57654,-5.950928E-4,0.046232603,0.018434143,12.92507342,77.61935344,7.8
152282732807,-0.7280167,-1.2113068,10.712771,-0.017326355,0.02595215,-0.017599488,12.92507342,77.61935344,7.8
152282732828,-0.17132874,-1.5074173,9.021045,0.012602234,-0.013374329,-0.022612,12.92507342,77.61935344,7.8
152282732850,-0.19441834,-1.6143768,9.277559,0.019567871,-0.027545165,-0.008192444,12.92507342,77.61935344,7.8
152282732871,-0.6256027,-1.9470978,9.379849,0.017367553,-0.033410646,8.4991456E-4,12.92507342,77.61935344,7.8
152282732892,-0.7858032,-1.4429306,11.044777,-0.043955993,-0.023391724,0.011593628,12.92504486,77.6192876,7.87
152282732905,-0.6616165,-0.5488571,10.593846,-0.030029297,-0.027426148,0.011108398,12.92504486,77.6192876,7.87
152282732927,-0.42604524,-0.7467407,9.02595,-0.020256042,-0.017288208,0.03821411,12.92504486,77.6192876,7.87
152282732948,-0.31645355,-1.0258621,8.614746,7.492065E-4,0.020085145,0.04432373,12.92504486,77.6192876,7.87
152282732969,-0.11605225,-0.815773,8.962065,-0.009143067,0.05319214,0.036883544,12.92504486,77.6192876,7.87
152282732990,-0.21667328,-0.93039095,8.774702,0.0035629272,0.04647522,-0.009291077,12.92502858,77.61923451,7.63
152282733012,-0.09882355,-0.44990844,9.963461,0.030439759,0.005432129,-0.03678131,12.92502858,77.61923451,7.63
152282733033,-0.66556245,-0.3880554,11.209521,-0.006578064,-0.017160034,-0.012228394,12.92502858,77.61923451,7.63
152282733054,-1.0033127,-0.93433684,11.66332,0.050598145,-0.011419678,-0.010151672,12.92502858,77.61923451,7.63
152282733075,-0.83425903,-2.446364,10.070654,-0.07693787,-0.017526245,-0.0133255,12.92502858,77.61923451,7.63
152282733097,-0.61890566,-1.6762314,9.191414,0.028237915,-0.011546326,0.008544922,12.92500165,77.61916804,7.89
152282733118,-0.047859192,-1.6581665,9.51385,0.013458252,0.014715577,0.014411926,12.92500165,77.61916804,7.89
152282733139,0.11521454,-1.5011963,8.497617,-7.1105955E-4,0.027174378,0.005857849,12.92500165,77.61916804,7.89
152282733160,-0.12801667,-1.596193,9.230537,0.012600708,0.022775268,-0.017233277,12.92500165,77.61916804,7.89
152282733181,-0.45152742,-0.6286545,9.390857,0.0045410157,0.0031066895,-0.027371217,12.92498065,77.61912883,7.58
152282733203,-0.495076,-0.26841432,10.630458,-3.4942626E-4,-0.013374329,-0.024809266,12.92498065,77.61912883,7.58
152282733224,-0.78460693,-0.6592819,11.352135,-0.02123413,-0.009713745,-0.00990448,12.92498065,77.61912883,7.58
152282733245,-0.9038925,-1.5385253,11.542246,0.027017212,0.0032302856,-0.0044021606,12.92498065,77.61912883,7.58
152282733267,-0.74656373,-2.2958527,10.191734,-0.01989441,0.014952088,-0.0077041625,12.92498065,77.61912883,7.58
152282733288,-0.5448502,-1.7504089,9.030499,0.022621155,0.0031066895,-0.019551087,12.92495302,77.61905519,7.79
152282733309,-0.3385849,-1.6859252,8.911934,-0.04749298,-0.004217529,-0.025541687,12.92495302,77.61905519,7.79
152282733330,-0.25543517,-1.3974686,9.145233,0.028359985,0.00799408,-0.0069717406,12.92495302,77.61905519,7.79
152282733352,0.10839081,-1.249115,9.353169,0.0039260862,0.019233704,-0.019435119,12.92495302,77.61905519,7.79
152282733373,-0.15780945,-1.5159149,8.602179,0.013945008,1.7852783E-4,-0.034091186,12.92495302,77.61905519,7.79
152282733394,-0.39421996,-1.4954544,10.374666,-0.013294983,-0.03512268,-0.05706177,12.92492431,77.61897192,7.91
152282733415,-0.5734436,-0.75499725,10.195804,0.014187622,-0.060284425,-0.030915832,12.92492431,77.61897192,7.91
152282733437,-0.5666199,-0.99583435,9.7287245,-0.007557678,-0.048071288,0.0075653074,12.92492431,77.61897192,7.91
152282733458,-0.79094696,-0.8062027,10.021965,0.009179687,-0.00837555,0.038095094,12.92492431,77.61897192,7.91
152282733479,-0.47581482,-1.1766113,9.993489,-0.0029144287,0.036213685,0.0216156,12.924888,77.61885695,8.3
152282733500,-0.3726837,-1.4772675,9.413828,-0.016593933,0.029734802,3.616333E-4,12.924888,77.61885695,8.3
152282733522,-0.1982483,-1.7749344,8.585551,0.0089355465,0.0025009154,-0.021998595,12.924888,77.61885695,8.3
152282733543,-0.27960357,-1.5804017,8.361704,-0.005238342,-0.03792877,-0.031285096,12.924888,77.61885695,8.3
152282733564,-0.38775483,-2.3172653,9.054308,0.013697815,-0.05356598,-0.0045288084,12.924888,77.61885695,8.3
152282733585,-0.52498627,-2.1427124,9.115801,0.0074737547,-0.035243224,0.028575134,12.9248623,77.61883238,7.33
152282733607,-0.37052917,-1.3776062,10.016339,-0.02257843,0.0015213012,0.044203185,12.9248623,77.61883238,7.33
152282733628,-0.6843475,-1.9063019,9.459055,0.015660096,0.018865967,0.028204346,12.9248623,77.61883238,7.33
152282733649,-0.2513687,-1.3531997,9.990259,-0.026364136,0.015815735,0.010252381,12.9248623,77.61883238,7.33
152282733670,-0.5746368,-1.7184646,9.942882,0.09042511,-0.0018997192,0.0018249511,12.9248623,77.61883238,7.33
152282733691,-0.5367111,-1.674916,9.976738,-0.041020203,-0.023884583,-0.0012268067,12.92483959,77.61878055,7.27
152282733713,-0.4978302,-1.4251083,10.360069,0.06843872,-0.029986572,0.010614013,12.92483959,77.61878055,7.27
152282733734,-0.79872435,-1.7007599,9.642224,-0.06765747,0.012150574,0.049945068,12.92483959,77.61878055,7.27
152282733755,-0.44733888,-1.0347153,9.10587,-0.05653839,0.07042084,0.042126466,12.92483959,77.61878055,7.27
152282733777,0.04043732,-1.6625916,9.630379,-0.010487366,0.074330136,-0.0068481443,12.92483959,77.61878055,7.27
152282733798,-0.19788513,-1.2510254,9.934744,-0.037973024,0.051608276,-0.032870483,12.92481285,77.61871409,7.05
152282733819,0.17850342,-1.7994614,9.599869,0.028971862,0.051119994,-0.05938263,12.92481285,77.61871409,7.05
152282733840,0.038760375,-1.7000396,9.644377,-0.0016906739,-0.022906493,-0.11301422,12.92481285,77.61871409,7.05
152282733861,-0.29240417,-1.1668015,10.371554,-0.0071884156,-0.08765106,-0.09102478,12.92481285,77.61871409,7.05
152282733883,-0.82995147,-1.394957,9.820729,0.006983948,-0.09681549,-0.016133118,12.92478927,77.61866441,6.6
152282733904,-0.819545,-1.3390839,9.809959,-0.043099977,-0.05027008,0.050312806,12.92478927,77.61866441,6.6
152282733925,-0.37112886,-1.670488,9.563499,0.052430727,0.047573853,0.081100464,12.92478927,77.61866441,6.6
152282733947,-0.3443283,-2.09617,9.943838,1.373291E-5,0.09876404,0.016360473,12.92478927,77.61866441,6.6
152282733968,-0.36622316,-1.8065201,9.658852,0.0807724,0.070178226,-0.0521759,12.92478927,77.61866441,6.6
152282733989,-0.30173644,-2.1635315,9.920868,-0.04065857,0.04623413,-0.07196655,12.92476889,77.61861368,6.28
152282734010,-0.14752045,-1.8139374,9.282942,0.049620055,-5.569458E-4,-0.108126834,12.92476889,77.61861368,6.28
152282734032,-0.70839536,-1.7449051,10.113966,-0.012319947,-0.036705017,-0.08662567,12.92476889,77.61861368,6.28
152282734053,-0.41575623,-1.810466,9.673329,-0.007191467,0.008856202,-0.030549621,12.92476889,77.61861368,6.28
152282734021,-0.10683899,-1.6878388,9.864278,0.029704284,0.0033493042,-0.07954101,12.92476889,77.61861368,6.28
152282734043,-0.35042876,-1.454654,9.602264,0.009059143,-0.051615905,-0.11191559,12.92475991,77.61856983,5.7
152282734064,-0.6658066,-1.4326432,9.625356,-0.0059661865,-0.07958832,-0.068911746,12.92475991,77.61856983,5.7
152282734085,-0.6157929,-1.4377884,9.610041,8.743286E-4,-0.049046326,0.021124268,12.92475991,77.61856983,5.7
152282734106,-0.4728241,-1.522734,9.829701,-5.92041E-4,-0.005685425,0.023202514,12.92475991,77.61856983,5.7
152282734128,-0.5715256,-1.4332412,9.36059,0.007350159,0.0127594,0.013552857,12.92475853,77.61854784,4.7
152282734149,-0.26895294,-1.2988846,9.805174,3.829956E-4,0.010804748,-0.01674347,12.92475853,77.61854784,4.7
152282734170,-0.51349944,-1.2678986,9.738774,-0.0038894652,-0.0137435915,-0.034580994,12.92475853,77.61854784,4.7
152282734191,-0.090092465,-1.4048812,9.650002,0.014920044,-0.038417052,-0.033970643,12.92475853,77.61854784,4.7
152282734213,-0.3016159,-1.3393219,9.35951,0.0040496825,-0.051245116,-0.010879517,12.92475853,77.61854784,4.7
152282734234,-0.18891601,-0.94391024,9.428905,-0.0043792725,-0.072747804,-3.7536622E-4,12.92473296,77.61846217,5.31
152282734255,-0.5682953,-1.3100113,9.613747,-0.020501709,-0.07738952,0.058255006,12.92473296,77.61846217,5.31
152282734276,-0.42664185,-0.86195374,10.208842,-0.02514801,-0.035731506,0.11115265,12.92473296,77.61846217,5.31
152282734298,-0.40307313,-1.19599,9.699649,0.0063705444,-0.028640747,0.08696289,12.92473296,77.61846217,5.31
152282734319,-0.20052032,-1.1474197,9.738892,0.011016846,-0.039151,0.08696594,12.92473296,77.61846217,5.31
152282734340,-0.2471817,-1.5465393,9.704077,-0.0052322387,-0.02974243,0.11066284,12.9247217,77.6184158,4.48
152282734361,-0.16821595,-1.1030304,10.496101,0.034591675,-0.040130615,0.099423215,12.9247217,77.6184158,4.48
152282734383,-0.27421722,-1.9480575,9.720949,0.01162262,-0.061756898,0.09795837,12.9247217,77.6184158,4.48
152282734404,-0.40211487,-2.0526214,9.714607,0.008938598,-0.086062625,0.11530457,12.9247217,77.6184158,4.48
152282734425,-0.19836731,-2.2057648,9.904475,0.013822937,-0.10304718,0.15330048,12.92469985,77.61839057,4.71
152282734446,-0.48969117,-1.9497315,9.428784,0.004173279,-0.0971817,0.22917327,12.92469985,77.61839057,4.71
152282734468,-0.37651214,-2.2210784,9.863919,0.009791565,-0.0754364,0.28256226,12.92469985,77.61839057,4.71
152282734489,-0.45906526,-1.9680389,10.373469,0.055360414,-0.061872862,0.31469268,12.92469985,77.61839057,4.71
152282734510,-0.44889528,-2.278984,9.77036,0.1103363,-0.012402344,0.38225403,12.92469985,77.61839057,4.71
152282734531,-0.22851714,-1.7995834,9.909979,0.10703888,0.04256592,0.38481903,12.92468528,77.61834771,4.79
152282734553,-0.19381714,-1.9201813,9.731954,0.0663559,0.061990358,0.3170166,12.92468528,77.61834771,4.79
152282734574,0.01471405,-1.6860412,10.021605,0.022251893,0.030348206,0.24065094,12.92468528,77.61834771,4.79
152282734595,0.24717864,-1.6557739,9.623919,-0.03650818,-0.04256897,0.17309418,12.92468528,77.61834771,4.79
152282734616,0.0069366456,-1.5731033,9.778013,0.0024612427,-0.13395385,0.16148987,12.92468528,77.61834771,4.79
152282734638,-0.71030885,-1.5941589,9.652754,0.027137756,-0.20591584,0.27315217,12.92465769,77.61831274,4.47
152282734659,-1.3092331,-1.7957535,10.811119,0.091523744,-0.1178299,0.56087035,12.92465769,77.61831274,4.47
152282734680,-0.7884369,-2.309253,9.7141285,0.16568145,0.05820618,0.7569519,12.92465769,77.61831274,4.47
152282734701,-0.29479828,-1.5092132,10.039432,0.034837343,0.16107026,0.64675444,12.92465769,77.61831274,4.47
152282734723,0.2208542,-0.8763107,10.534027,0.024085999,0.15691987,0.4269684,12.92465769,77.61831274,4.47
152282734744,0.23461609,-1.0617554,8.907268,0.021768188,0.15679169,0.3231247,12.92461577,77.61830014,4.26
152282734765,0.8586624,-1.1122437,9.497218,-0.04566803,0.08825836,0.03981323,12.92461577,77.61830014,4.26
152282734786,0.05288086,-0.31986085,9.855303,-0.09367218,-0.12552491,-0.1214447,12.92461577,77.61830014,4.26
152282734808,-0.6503723,-0.7734207,9.6519165,0.07026825,-0.23633727,0.016723633,12.92461577,77.61830014,4.26
152282734829,-1.2418747,-0.4505066,11.148501,0.024085999,-0.19210663,0.2994217,12.9245841,77.61830216,3.39
152282734850,-0.63182676,-1.5027527,8.846128,0.004545593,-0.008370971,0.5088226,12.9245841,77.61830216,3.39
152282734871,-0.30544585,-0.6798614,8.070496,0.15738067,0.16791534,0.5013687,12.9245841,77.61830216,3.39
152282734893,0.066279605,-0.7187439,11.925093,-0.26752624,0.2614975,0.25323638,12.9245841,77.61830216,3.39
152282734914,0.23545226,0.84449005,7.960785,0.31229097,0.14775391,0.022343446,12.9245841,77.61830216,3.39
152282734935,-0.20183715,-0.46857452,11.950697,-0.14693756,0.16681519,-0.058526613,12.9245496,77.61832083,4.15
152282734956,-0.53778994,0.18275452,8.687126,-0.040904235,0.101335146,-0.06402588,12.9245496,77.61832083,4.15
152282734978,-0.09523316,-1.1562698,10.5603485,0.09177093,0.089846805,-0.1470993,12.9245496,77.61832083,4.15
152282734999,-0.10779877,-0.21373749,9.8678665,0.034837343,-0.02645111,-0.17459106,12.9245496,77.61832083,4.15
152282735020,-0.2883362,-0.2002182,10.310179,0.041799925,-0.18331452,-0.22565766,12.9245496,77.61832083,4.15
152282735041,-0.9470795,-0.17210236,10.181925,0.06892395,-0.2849579,-0.10006714,12.92451553,77.61833949,4.8
152282735063,-0.48921508,-0.026737977,10.792572,-0.012438965,-0.24440154,0.10272217,12.92451553,77.61833949,4.8
152282735084,-0.8563919,-0.66729736,9.790098,0.019694518,-0.13432007,0.18897553,12.92451553,77.61833949,4.8
152282735105,-0.57032776,-1.5666397,9.63062,-0.077796936,-0.01496582,0.23027344,12.92451553,77.61833949,4.8
152282735127,-0.9583267,-0.9533615,10.976581,0.07405243,0.09290314,0.22183685,12.92451553,77.61833949,4.8
152282735148,0.015670776,-1.2326019,10.134787,-0.0033966065,0.20651856,0.17687988,12.92445613,77.6183678,6.29
152282735169,0.33714905,-1.3569092,10.54982,0.08040772,0.20150909,0.033705138,12.92445613,77.6183678,6.29
152282735190,-0.047138978,-1.7688339,9.554767,0.007714844,0.02925415,-0.1418457,12.92445613,77.6183678,6.29
152282735211,-0.26369172,-1.1995804,9.201465,-0.04432373,-0.12894592,-0.097746275,12.92445613,77.6183678,6.29
152282735233,-0.56111753,-0.9153153,11.51281,0.044369508,-0.18343964,-0.010029602,12.92440582,77.61840585,6.27
152282735254,-1.0436325,-1.1129608,11.260725,0.05621643,-0.16499023,0.09001465,12.92440582,77.61840585,6.27
152282735275,-0.7707321,-0.7003204,9.846571,-0.028323364,-0.06285248,0.1931305,12.92440582,77.61840585,6.27
152282735317,-0.27780762,-0.7987839,9.854467,-0.00962677,0.08373718,0.22428131,12.92440582,77.61840585,6.27
152282735338,-0.32458648,-0.751886,9.969562,0.015658569,0.19197997,0.16026306,12.92440582,77.61840585,6.27
152282735360,0.24478607,-0.6023346,10.7160015,0.009307861,0.18709107,0.023077393,12.92435477,77.61843109,6.59
152282735381,-0.11521454,-0.8324051,9.973747,0.06342773,0.06968689,-0.072697446,12.92435477,77.61843109,6.59
152282735402,-0.45092925,-0.86578524,9.638636,-0.061790466,-0.016059875,-0.056570433,12.92435477,77.61843109,6.59
152282735423,-0.45045012,-1.7450256,9.607529,-0.008529663,-0.030844117,-0.029325867,12.92435477,77.61843109,6.59
152282735445,-0.32913208,-0.8793014,8.771594,0.015657043,-0.039273072,-0.015888978,12.92435477,77.61843109,6.59
152282735465,-0.39828643,-1.5748962,9.258891,0.0729538,-0.041596986,0.0015808105,12.92430243,77.61846172,6.5
152282735487,-0.26081848,-1.8427734,9.798117,-0.045178223,-0.06297455,-0.0063583376,12.92430243,77.61846172,6.5
152282735508,-0.7774292,-1.1973083,9.301844,-0.050920106,-0.02632599,0.06252594,12.92430243,77.61846172,6.5
152282735530,-0.30113983,-1.497728,10.342241,-0.0088943485,0.034742735,0.05544281,12.92430243,77.61846172,6.5
152282735551,-0.46660003,-1.2226715,9.802661,0.047299195,0.018382262,0.008421326,12.92424695,77.6184996,7.1
152282735572,-0.419223,-1.4580063,10.755366,0.027383422,-0.014360046,-0.005140686,12.92424695,77.6184996,7.1
152282735593,-0.64104,-1.4154129,9.375424,-0.040290833,0.020457458,0.050068665,12.92424695,77.6184996,7.1
152282735615,-0.8622543,-1.4733216,9.994806,0.008569336,0.088990785,0.05068054,12.92424695,77.6184996,7.1
152282735636,0.17754821,-1.5388839,9.167007,0.07698669,0.11354675,-0.007093811,12.92424695,77.6184996,7.1
152282735657,-0.2304306,-0.7655228,11.32031,-0.0066986084,0.044155885,-0.10018768,12.9241897,77.61852207,6.76
152282735678,-0.8758957,0.6513885,14.268504,0.07698822,-0.019976806,-0.16481629,12.9241897,77.61852207,6.76
152282735716,-1.2559922,-1.6751556,8.964098,-0.038334657,-0.0767807,-0.18461151,12.9241897,77.61852207,6.76
152282735737,-0.41754913,-0.99128723,7.02352,-3.4332275E-4,-0.094006345,0.0150115965,12.9241897,77.61852207,6.76
152282735758,-0.52606505,-0.23323822,10.655942,0.024456788,-0.10011139,-0.0041641234,12.9241897,77.61852207,6.76
152282735779,-0.5289322,-1.3331025,9.717,0.04400177,-0.086064145,0.044696044,12.9241312,77.6185557,6.78
152282735800,-0.338945,-1.6166489,9.978296,-0.04285736,-0.018511962,0.06619263,12.9241312,77.6185557,6.78
152282735822,-0.4442276,-1.1323426,9.05311,0.01492157,0.02314148,0.08390808,12.9241312,77.6185557,6.78
152282735843,-0.1454834,-1.5518067,9.340965,-0.020501709,0.05063324,0.048114013,12.9241312,77.6185557,6.78
152282735864,-0.40977478,-1.881778,9.949821,0.07906494,0.04207916,0.026011657,12.9241312,77.6185557,6.78
152282735886,0.07764435,-2.3797212,9.992294,-0.07364044,0.048184205,0.019296264,12.9240766,77.61857846,6.87
152282735907,-0.3901535,-1.7656021,10.011675,-0.076696776,-0.006053162,-0.043499757,12.9240766,77.61857846,6.87
152282735928,-0.43214417,-2.0090744,9.613508,0.1077713,-0.056987,-0.028715516,12.9240766,77.61857846,6.87
152282735949,-0.4969879,-1.6164138,9.862964,-0.12739715,-0.045135498,0.034068298,12.9240766,77.61857846,6.87
152282735970,-0.74775696,-1.6712097,8.134386,-0.24882965,0.02571106,0.08574524,12.92402484,77.61859531,6.65
152282735991,-0.1648651,-0.8459198,10.418215,0.14895019,0.081538394,0.050068665,12.92402484,77.61859531,6.65
152282736013,-0.5223541,-2.049272,10.350021,-0.022816468,0.07555084,-0.007218933,12.92402484,77.61859531,6.65
152282736034,-0.36574706,-0.92392886,9.139612,0.13391571,0.040367126,-0.018087769,12.92402484,77.61859531,6.65
152282736055,-0.32410735,-1.4682938,10.84462,0.07442017,-0.028649902,-0.08467102,12.92402484,77.61859531,6.65
152282736077,-0.5185257,-1.1222947,8.306786,-0.06924133,-0.087408446,-0.04545288,12.92397606,77.61863363,6.29
152282736098,-0.55035096,-0.7168274,9.422205,-0.07266235,-0.049171448,0.021975707,12.92397606,77.61863363,6.29
152282736119,-0.42149812,0.30574647,11.489718,0.19146423,0.014593506,0.08868103,12.92397606,77.61863363,6.29
152282736140,-0.6703491,-0.56823575,9.529877,-0.08146515,0.13321534,0.053977966,12.92397606,77.61863363,6.29
152282736162,-0.46995085,-0.25250244,6.519948,-0.30967408,0.12979737,0.004753113,12.92397606,77.61863363,6.29
152282736183,-0.28068238,0.12676087,10.548742,0.2567032,0.11073456,-0.14710084,12.92392795,77.61866625,6.04
152282736205,-0.018428039,-0.7601379,11.551338,0.07833405,0.053196717,-0.16664886,12.92392795,77.61866625,6.04
152282736225,-0.28953248,-1.2925415,9.232089,0.10813904,-0.122348025,-0.20550385,12.92392795,77.61866625,6.04
152282736247,-0.49830627,-1.2918259,9.455106,-0.01292572,-0.23340149,-0.14612274,12.92392795,77.61866625,6.04
152282736268,-1.1322861,-0.61788636,11.511734,0.04779663,-0.2090927,0.024662782,12.92386744,77.61869701,6.76
152282736289,-0.2708664,-1.9322647,7.661203,-0.03516083,-0.12492218,0.13791656,12.92386744,77.61869701,6.76
152282736310,-0.75996244,-0.4552948,9.256978,-0.111026004,0.007019043,0.16258697,12.92386744,77.61869701,6.76
152282736331,-0.24885559,-1.150409,10.325493,0.10619049,0.09449158,0.08513031,12.92386744,77.61869701,6.76
152282736353,-0.21092682,-1.6630738,9.836039,0.0021026612,0.032069396,-0.01809082,12.92386744,77.61869701,6.76
152282736374,-0.43908387,0.045643616,9.336184,-0.0051116943,-0.073480226,-0.028352356,12.92381172,77.61872845,6.95
152282736395,-0.22624359,-1.6975281,8.531715,-0.020741273,-0.09021912,0.022097778,12.92381172,77.61872845,6.95
152282736417,-0.936673,-0.978125,9.218573,-0.079992674,-0.074092105,0.075724795,12.92381172,77.61872845,6.95
152282736438,-0.8324646,-1.3582245,10.573511,0.055607606,-0.0240036,0.110299684,12.92381172,77.61872845,6.95
152282736459,-0.17922516,-2.0164886,9.979248,0.02017517,0.07506256,0.14963683,12.92381172,77.61872845,6.95
152282736480,0.1657013,-2.095694,9.522102,-0.009754944,0.13700561,0.092703246,12.92375288,77.61876055,6.73
152282736502,0.04797516,-1.5440292,10.158476,-0.015127564,0.09131317,-0.017599488,12.92375288,77.61876055,6.73
152282736523,-0.4874176,-1.3535583,11.566892,0.016027832,0.012269592,-0.042153932,12.92375288,77.61876055,6.73
152282736544,-0.9687378,-1.7184646,8.767766,0.41259766,-0.04636383,-0.02432251,12.92375288,77.61876055,6.73
152282736565,-0.52319336,-0.6152557,7.4191694,-0.525061,-0.06920624,-0.0041687014,12.92369825,77.61877763,6.3
152282736586,-0.37627107,-0.4893921,9.571034,-0.34241638,0.002253723,0.037124634,12.92369825,77.61877763,6.3
152282736608,-0.3110672,-0.28181458,10.692433,0.6237091,0.012149048,0.020022582,12.92369825,77.61877763,6.3
152282736629,0.054315187,-2.092343,10.752851,-0.06655884,0.0701767,-0.017361451,12.92369825,77.61877763,6.3
152282736650,-0.06987305,-1.2014954,9.778017,0.057928465,0.045132447,-0.023464967,12.92369825,77.61877763,6.3
152282736671,0.5679337,-1.2408569,10.56633,0.06220398,-0.08044586,-0.17837676,12.92365224,77.61881507,6.01
152282736693,-0.6801621,-1.1803192,9.491716,0.011749268,-0.22998352,-0.10470734,12.92365224,77.61881507,6.01
152282736714,-1.1659043,-1.7943176,10.377538,-0.0020584106,-0.17207642,0.109809875,12.92365224,77.61881507,6.01
152282736711,-0.6058639,-2.0069184,9.432014,-0.014639283,0.031817626,0.26362458,12.92365224,77.61881507,6.01
152282736733,-0.053120423,-2.3322234,9.788307,0.0023376464,0.123442076,0.15256958,12.92365224,77.61881507,6.01
152282736754,-0.43095094,-2.348854,9.354486,-0.10295868,0.10243072,0.0629013,12.92360984,77.61884304,5.73
152282736775,-0.5611191,-2.7848268,8.898415,-0.038459778,0.13651581,0.07474518,12.92360984,77.61884304,5.73
152282736796,-0.22325134,-2.8119874,9.785315,-0.050798036,0.20920868,0.032844543,12.92360984,77.61884304,5.73
152282736817,0.07716827,-4.1596236,10.310061,-0.48939362,0.25001985,-0.07783203,12.92360984,77.61884304,5.73
152282736839,-0.35258484,-1.3776077,6.2862883,0.2751526,0.09547119,-0.5221695,12.92360984,77.61884304,5.73
152282736860,-0.11581421,-2.5352554,12.226831,0.101797484,-0.010450745,-0.36237183,12.92356978,77.61887241,4.93
152282736881,-0.42389375,-0.12041626,9.2504,0.09629364,-0.102680966,-0.2939499,12.92356978,77.61887241,4.93
152282736902,-0.09643249,-0.906102,11.341845,0.17606659,-0.24720764,-0.31325683,12.92356978,77.61887241,4.93
152282736924,-1.0730622,-0.81110686,11.038793,-0.2658127,-0.32271117,-0.050831605,12.92356978,77.61887241,4.93
152282736945,-1.0512893,-1.4734375,8.83943,0.107284546,-0.17109832,0.21634063,12.92353088,77.61888349,4.17
152282736966,-0.81631315,-2.1652038,11.092871,0.017982483,-0.002507019,0.33753967,12.92353088,77.61888349,4.17
152282736987,0.4037842,-1.4929383,8.758675,0.04106598,0.08373871,0.28585815,12.92353088,77.61888349,4.17
152282737009,-0.029315185,-1.7408386,10.474686,0.04436798,0.022537231,0.055563353,12.92353088,77.61888349,4.17
152282737030,-0.5497543,-1.9993789,9.594725,-0.07034149,5.493164E-4,0.11041565,12.92353088,77.61888349,4.17
152282737051,-0.7676178,-1.7523224,9.620328,-0.0022994995,0.08899231,0.21609803,12.92349784,77.61890706,4.04
152282737073,0.011244202,-1.6728836,10.211477,-0.055192567,0.1625412,0.152565,12.92349784,77.61890706,4.04
152282737094,-0.05001068,-1.2425339,9.75947,0.04473114,0.10255127,-0.04508972,12.92349784,77.61890706,4.04
152282737115,-0.100379944,-1.3378875,9.384157,0.038990784,0.053804018,-0.15357208,12.92349784,77.61890706,4.04
152282737136,-0.34133607,-0.72328794,10.303839,0.069654845,0.012266541,-0.14270325,12.92349784,77.61890706,4.04
152282737157,-0.1561325,-0.92967224,9.989781,0.0040481566,-0.009591674,-0.13573913,12.92346973,77.61893378,3.89
152282737179,-0.45978242,-0.5555542,8.887405,0.034228515,0.008972168,-0.06732178,12.92346973,77.61893378,3.89
152282737200,-0.053479005,-1.7104492,8.99616,0.034347534,0.051972963,-0.06744842,12.92346973,77.61893378,3.89
152282737221,-0.020457458,-1.555275,8.497139,-0.03235321,0.024728393,-0.14637145,12.92346973,77.61893378,3.89
152282737243,-0.4351364,-1.5592239,9.197276,0.009669495,-0.017286683,-0.15931854,12.92343656,77.61895091,3.85
152282737264,-0.16845703,-1.5608963,10.386751,0.004293823,-0.08081055,-0.16469269,12.92343656,77.61895091,3.85
152282737285,-0.6433121,-1.1289933,9.756477,-0.004133606,-0.1111084,-0.11509399,12.92343656,77.61895091,3.85
152282737306,-0.46229705,-1.5238082,9.565892,0.009552002,-0.08801727,0.010136413,12.92343656,77.61895091,3.85
152282737327,-0.38859558,-1.835234,9.501285,0.006864929,-0.07470246,0.015388489,12.92343656,77.61895091,3.85
152282737349,-0.6016754,-1.8097503,9.765452,-0.02098999,-0.050756834,0.09050751,12.9234009,77.61895774,3.82
152282737370,-0.28857574,-1.8887146,9.802183,0.009425354,-0.010449219,0.11860504,12.9234009,77.61895774,3.82
152282737391,-0.43717194,-1.4755951,9.531077,0.009181214,-0.02167816,0.09001465,12.9234009,77.61895774,3.82
152282737413,-0.3992447,-1.3532013,9.5964,0.0056381226,-0.010569763,0.09722595,12.9234009,77.61895774,3.82
152282737434,-0.19537354,-1.2854843,10.070776,-0.006088257,-0.0011672974,0.10992889,12.9234009,77.61895774,3.82
152282737455,-0.54245454,-1.2608383,9.630977,-0.012687683,0.020574952,0.11970367,12.9233682,77.61897307,3.47
152282737476,-0.16881561,-1.3791625,9.8316145,0.008201599,0.04232178,0.11506347,12.9233682,77.61897307,3.47
152282737498,-0.29156798,-0.5170288,9.81032,0.019078065,0.0654129,0.08696594,12.9233682,77.61897307,3.47
152282737519,-0.15469666,-0.65856475,9.255661,-0.0066986084,0.0430542,-0.0036727905,12.9233682,77.61897307,3.47
152282737541,-0.4893326,-0.02267151,10.20358,0.0061309813,0.0105575565,-0.023100281,12.92334357,77.61899401,3.25
152282737561,-0.15864715,-0.6640701,7.7261705,0.001612854,-0.00287323,-0.01820984,12.92334357,77.61899401,3.25
152282737582,-0.8317474,0.8326416,11.303317,0.026898194,0.011782837,0.0017059327,12.92334357,77.61899401,3.25
152282737604,-0.23976135,-0.42765504,9.180407,0.008570862,0.011904907,-0.008441162,12.92334357,77.61899401,3.25
152282737625,-0.26967317,-0.24305268,9.643183,-0.028684998,-0.00763855,-0.04117737,12.92334357,77.61899401,3.25
152282737646,-0.91358185,-1.7262421,10.897621,-0.017330933,-0.019238282,-0.003918457,12.92329956,77.61900564,4.02
152282737668,-0.41371918,-0.978006,9.865232,-0.026731873,-0.031208802,-0.0036743165,12.92329956,77.61900564,4.02
152282737689,-0.33427733,-1.3381271,9.327806,0.0025878907,-0.027426148,-0.0017181396,12.92329956,77.61900564,4.02
152282737710,-0.51397705,-1.1611786,9.6427,0.06379242,0.015933227,0.045918275,12.92329956,77.61900564,4.02
152282737731,-0.33081055,-1.0030091,10.375265,-0.053117372,0.05111847,0.031262208,12.92329956,77.61900564,4.02
152282737752,0.06113434,-0.7205383,8.788823,0.10606079,0.0068939207,-0.053518675,12.92326389,77.61903233,4.31
152282737774,-0.44638062,-1.1297119,9.910579,-0.01048584,-0.05368805,-0.061946105,12.92326389,77.61903233,4.31
152282737795,-0.6582657,-0.1569107,10.001982,-0.071070865,-0.061750792,0.0014587402,12.92326389,77.61903233,4.31
152282737816,-0.34540406,-1.3296311,9.55979,0.08639069,-0.03390198,0.0307724,12.92326389,77.61903233,4.31
152282737837,-0.451886,-0.75176394,9.396835,-0.04175415,0.034628294,0.08855133,12.92326389,77.61903233,4.31
152282737859,-0.07046966,-0.64588165,9.884976,0.0011199951,0.11305694,0.069000244,12.92322976,77.61905048,4.46
152282737880,-0.13280335,-1.181874,9.255423,0.0018508912,0.12563935,-0.047531128,12.92322976,77.61905048,4.46
152282737901,0.083149716,-0.8523819,9.955803,-0.0064575197,0.061013795,-0.15980072,12.92322976,77.61905048,4.46
152282737922,-0.2841507,-1.1400025,10.292471,-0.006576538,-0.030238342,-0.2012207,12.92322976,77.61905048,4.46
152282737944,-0.26357117,-1.4221146,9.240587,0.017730713,-0.10255585,-0.16616364,12.92319677,77.61906956,4.43
152282737965,-0.49124756,-1.2349961,10.197118,0.008816528,-0.14189605,-0.09982147,12.92319677,77.61906956,4.43
152282737986,-0.74835813,-1.555275,9.630857,-0.014637756,-0.12625733,0.031259157,12.92319677,77.61906956,4.43
152282738007,-0.6263229,-1.7289932,9.659929,-0.028198242,-0.018267822,0.15342255,12.92319677,77.61906956,4.43
152282738029,-0.27804565,-1.417566,9.845255,0.013700867,0.06468048,0.14022979,12.92319677,77.61906956,4.43
152282738050,-0.0792038,-1.8809402,9.274447,-0.028076172,0.07298584,0.041275024,12.92316387,77.61909007,4.48
152282738071,-0.14465027,-1.4595611,10.206332,0.0041687014,0.039633177,-0.02798462,12.92316387,77.61909007,4.48
152282738092,-0.5278595,-1.4048828,9.461924,0.014190674,0.030960083,-0.020896912,12.92316387,77.61909007,4.48
152282738114,-0.27493897,-1.5853074,9.930799,-0.022215271,0.06651001,-0.009048462,12.92316387,77.61909007,4.48
152282738135,-0.021536255,-1.7883346,9.451277,-0.031370543,0.053193666,-0.118515015,12.92316387,77.61909007,4.48
152282738156,-0.05419922,-1.4636307,9.923498,0.011502075,-0.023884583,-0.17177887,12.92313349,77.61910931,4.02
152282738177,-0.30041963,-1.8586884,9.651556,0.027384948,-0.09730377,-0.17116699,12.92313349,77.61910931,4.02
152282738199,-0.79142916,-1.1286331,10.01742,-0.0010787963,-0.13407746,-0.07624054,12.92313349,77.61910931,4.02
152282738220,-0.43621367,-1.2970871,9.471855,0.08761444,-0.08252106,0.08525391,12.92313349,77.61910931,4.02
152282738242,-0.5300125,-0.6939789,10.14591,-0.011581421,-0.015577698,0.121902466,12.92310551,77.61912424,3.48
152282738262,-0.4076187,-0.606279,9.462163,-0.024531554,0.009217834,0.10357819,12.92310551,77.61912424,3.48
152282738284,-0.1597229,-0.5346161,10.362343,-0.025387574,0.03377228,0.09344025,12.92310551,77.61912424,3.48
152282738305,-0.72718203,0.044685364,11.415304,0.050230406,0.021432495,0.008662415,12.92310551,77.61912424,3.48
152282738326,-0.9718445,0.04372864,11.999753,-0.025758361,-0.022047425,0.002923584,12.92310551,77.61912424,3.48
152282738347,-0.21116944,-0.1296341,10.443219,0.026779175,-0.021931458,0.037728883,12.92307805,77.6191403,3.86
152282738369,-0.5144577,-0.25645143,10.322261,0.0045410157,-0.011422729,0.037492372,12.92307805,77.6191403,3.86
152282738390,-0.25734863,-0.3173462,9.482384,-0.014877319,-0.012521362,0.053366087,12.92307805,77.6191403,3.86
152282738411,-0.3282959,-0.45876008,9.874687,0.012850952,-0.025715638,0.036872864,12.92307805,77.6191403,3.86
152282738432,-0.65407866,-0.46426392,9.559074,-0.060572814,-0.027177429,0.07034759,12.92307805,77.6191403,3.86
152282738454,-0.18628235,-0.69469756,9.417658,0.044976808,0.0010360718,0.07804565,12.92304488,77.61916125,4.68
152282738475,-0.69679105,-0.24185486,10.531036,-0.01878662,0.041830443,0.081466675,12.92304488,77.61916125,4.68
152282738496,-0.24371186,-0.8370682,8.968287,-0.024043273,0.08276062,0.07401428,12.92304488,77.61916125,4.68
152282738517,-0.07717285,-0.6014954,10.146032,-0.025999451,0.102429196,-3.7994384E-4,12.92304488,77.61916125,4.68
152282738539,-0.07549286,-1.5601807,9.619733,0.004664612,0.05722809,-0.065733336,12.92304488,77.61916125,4.68
152282738560,-0.3023346,-1.5932022,9.643779,1.8310548E-5,0.018865967,-0.09700928,12.9230044,77.61919415,5.21
152282738581,0.033377074,-1.3721054,9.6245165,0.017854309,-0.03341217,-0.1069046,12.9230044,77.61919415,5.21
152282738602,-0.1556549,-1.3776093,10.112892,0.0047851563,-0.108299255,-0.102508545,12.9230044,77.61919415,5.21
152282738624,-0.67561495,-1.5786072,9.664357,0.017489623,-0.14018707,-0.034089662,12.9230044,77.61919415,5.21
152282738645,-0.47198486,-1.38311,10.381009,0.040333558,-0.07897644,0.08940582,12.92296479,77.61922132,4.99
152282738666,-0.4754532,-1.498085,9.768324,-1.0681152E-4,-0.015945435,0.121902466,12.92296479,77.61922132,4.99
152282738687,-0.27003175,-1.0031312,9.864393,0.07796173,0.0324234,0.11334839,12.92296479,77.61922132,4.99
152282738709,-0.3109482,-1.6569717,9.64725,-0.035406493,0.047088623,0.08366394,12.92296479,77.61922132,4.99
152282738730,-0.20374909,-0.9973877,9.282344,-0.10613251,0.07274322,0.06423645,12.92296479,77.61922132,4.99
152282738751,-0.32039946,-0.9634094,9.768445,0.04949646,0.08642731,0.018920898,12.92293346,77.61924454,4.26
152282738772,-0.021658326,-1.5764511,9.619371,-0.092573546,0.06308899,-0.056692503,12.92293346,77.61924454,4.26
152282738794,0.07226105,-1.0342362,9.126329,0.045591734,-0.02620392,-0.13158569,12.92293346,77.61924454,4.26
152282738815,-0.28115845,-1.428215,10.465233,-0.010360718,-0.11917572,-0.10812531,12.92293346,77.61924454,4.26
152282738836,-0.8272003,-1.0022919,9.327209,-0.0014465332,-0.09877014,0.03553467,12.92293346,77.61924454,4.26
152282738857,-0.5468826,-1.3760513,10.069821,0.022134399,-0.033532716,0.10480042,12.92288873,77.61926322,5.08
152282738879,-0.46361083,-0.88049775,9.93965,-0.030273438,0.023750305,0.08928375,12.92288873,77.61926322,5.08
152282738900,-0.2557953,-1.3935196,9.625712,0.042166136,0.053685,0.07462768,12.92288873,77.61926322,5.08
152282738921,-0.21152496,-1.1423935,9.491716,0.0029510497,0.06382446,0.024792481,12.92288873,77.61926322,5.08
152282738942,-0.30520478,-1.2729203,9.859968,0.022253418,0.052708436,-0.019676208,12.92285053,77.61928751,4.91
152282738964,-0.34684142,-1.1305481,9.753607,0.02469635,0.04171448,-0.023464967,12.92285053,77.61928751,4.91
152282738985,-0.14309081,-1.596791,9.53861,-0.011218262,0.04598694,-0.043009948,12.92285053,77.61928751,4.91
152282739006,-0.17359924,-1.2589233,10.094225,0.02664795,0.02827301,-0.09065704,12.92285053,77.61928751,4.91
152282739027,-0.23330383,-1.8787842,9.398155,-0.056288145,-0.01875,-0.12291412,12.92285053,77.61928751,4.91
152282739049,-0.353302,-0.93218386,9.678114,0.05340576,-0.0536911,-0.10348511,12.92281747,77.61931949,4.7
152282739071,-0.19429931,-1.1743377,10.121266,0.035813905,-0.09559174,-0.09444733,12.92281747,77.61931949,4.7
152282739091,-0.5871994,-1.0447662,9.067945,-0.042123415,-0.11538391,-0.0019622804,12.92281747,77.61931949,4.7
152282739112,-0.7116272,-0.891626,10.640986,0.080647275,-0.08654938,0.082200624,12.92281747,77.61931949,4.7
152282739134,-0.24574128,-1.6246674,8.850557,-0.03857727,0.0014007569,0.12923431,12.92281747,77.61931949,4.7
