timestamp,accx,accy,accz,gyrx,gyry,gyrz,latitude,longitude,speed
152281949738,-0.55992126,-0.83982086,10.07078,0.0041275024,0.042903136,0.0037612915,12.87808976,77.64614212,0.0
152281949758,-0.41970214,-1.4038101,9.764379,-0.0070724487,0.010627747,3.8757324E-4,12.8780906,77.64614171,0.0
152281949779,-0.40701905,-1.4107482,9.790579,0.00209198,0.0020828247,-8.3007815E-4,12.8780906,77.64614171,0.0
152281949802,-0.45535737,-1.4017731,9.762583,0.003315735,-0.0046325685,2.2888184E-5,12.8780906,77.64614171,0.0
152281949822,-0.39661255,-1.3743789,9.764017,0.012107849,-0.0045135496,0.0024642944,12.8780906,77.64614171,0.0
152281949843,-0.35724944,-1.3928009,9.819532,9.918213E-4,-0.005123901,0.004663086,12.8780906,77.64614171,0.0
152281949864,-0.41838533,-1.3482926,9.777057,-0.003036499,0.012709046,0.0018585206,12.87808921,77.6461393,0.0
152281949885,-0.23031159,-1.4254653,9.8131895,0.0052703856,-0.013183594,-0.016223144,12.87808921,77.6461393,0.0
152281949907,-0.19429627,-1.3665985,9.764496,0.013211059,-0.052635193,-0.08940582,12.87808921,77.6461393,0.0
152281949928,-0.20363006,-1.2553345,9.752295,0.0074691772,-0.081832886,-0.12434693,12.87808921,77.6461393,0.0
152281949950,-0.1927414,-1.4503479,9.759112,-0.0032821656,-0.09160767,-0.08488464,12.87808921,77.6461393,0.0
152281949970,0.24071655,-1.4703262,9.929959,7.4768066E-4,-0.08024292,-0.02746277,12.87808854,77.6461378,0.0
152281949992,0.6223694,-1.0631897,9.672972,-7.141113E-4,0.013198853,0.036901854,12.87808854,77.6461378,0.0
152281950013,0.302092,-1.3387238,9.820009,-2.3040772E-4,0.033477783,-0.009384155,12.87808854,77.6461378,0.0
152281950034,0.05228119,-1.3036697,9.757677,0.0035583496,0.0036758422,-0.005227661,12.87808854,77.6461378,0.0
152281950055,0.31537017,-1.2751954,9.946829,0.0023376464,-0.068640135,-0.004986572,12.8780881,77.64613704,0.0
152281950077,0.4730606,-1.3309479,9.447088,-0.005116272,0.007827759,0.004544067,12.8780881,77.64613704,0.0
152281950098,0.0634079,-1.4480759,9.51947,-0.0025497437,0.07868042,0.0068588257,12.8780881,77.64613704,0.0
152281950119,0.15780488,-1.1841491,10.087769,0.0034378052,0.046798706,0.0039367676,12.8780881,77.64613704,0.0
152281950140,0.0128005985,-0.67148435,9.56649,0.020663451,0.021868896,-0.010484314,12.8780881,77.64613704,0.0
152281950162,0.03816681,-0.5518402,9.599871,0.021154786,0.051553346,-0.016226197,12.87808769,77.64613672,0.0
152281950183,-0.28379363,-0.23850402,9.609441,0.014434814,0.10971069,-0.010848999,12.87808769,77.64613672,0.0
152281950204,-0.17288208,-0.14147644,10.050919,0.008569336,0.11606598,-0.027827453,12.87808769,77.64613672,0.0
152281950225,-0.16402741,-0.37633055,10.021845,0.010527039,0.0554718,-0.1396164,12.87808769,77.64613672,0.0
152281950247,-0.26333314,-0.5042297,9.502243,0.037887573,-0.054225158,-0.24651948,12.87808769,77.64613672,0.0
152281950268,-0.5743988,-0.40384674,10.308624,0.03177948,-0.05923309,-0.22025147,12.87808747,77.64613623,0.0
152281950289,-0.74189603,0.09206543,9.583598,0.010522461,-0.02331543,-0.028442383,12.87808747,77.64613623,0.0
152281950310,-0.47425842,-0.5164307,9.822281,0.015289307,5.0354004E-4,0.018836975,12.87808747,77.64613623,0.0
152281950332,-0.3962555,-0.19615173,9.729083,0.008323669,-0.020509338,-0.0058410643,12.87808747,77.64613623,0.0
152281950353,-0.65444183,-0.041215517,9.822401,0.004295349,0.0040390017,0.089559935,12.87808702,77.64613583,0.0
152281950374,-0.53097075,-0.121614076,9.79967,-0.010604858,0.05155792,0.10568543,12.87808702,77.64613583,0.0
152281950395,0.33774415,-0.275354,9.465752,-0.008283997,0.0024490356,-0.06387176,12.87808702,77.64613583,0.0
152281950417,-0.6167542,-0.17019042,9.897059,-0.0031570434,-0.032356262,-0.060942076,12.87808702,77.64613583,0.0
152281950438,-0.6105301,-1.713321,10.015625,-0.05006256,0.0205307,0.048754882,12.87808702,77.64613583,0.0
152281950459,-0.2859436,-1.6703705,9.807566,0.0072219847,0.038856506,0.0035629272,12.87808697,77.64613597,0.0
152281950480,0.0805191,-2.0273805,6.9452744,-0.15904236,-0.004022217,-0.06582336,12.87808697,77.64613597,0.0
152281950502,-0.2269638,-1.4510666,12.421488,0.17240295,-0.04873047,-0.1895874,12.87808697,77.64613597,0.0
152281950523,-0.6973877,-1.5614974,8.941007,0.009916687,-0.112501524,-0.07596588,12.87808697,77.64613597,0.0
152281950544,-0.6452271,-2.1155548,10.404215,0.0921402,-0.04359894,0.07758789,12.87808697,77.64613597,0.0
152281950565,-0.44147795,0.15858611,9.4569,-0.14706421,0.017967224,0.20427856,12.87809395,77.64611936,2.34
152281950587,-0.041156005,-0.48460692,9.632296,0.14759979,0.057180785,0.20440368,12.87809395,77.64611936,2.34
152281950608,0.04402771,-0.24831542,10.049123,-0.090379335,0.020040894,0.029824829,12.87809395,77.64611936,2.34
152281950630,-0.2349762,-0.3019165,9.415861,0.015045166,-0.02393036,-0.01916046,12.87809395,77.64611936,2.34
152281950651,-0.23114929,-0.4164093,9.26978,-0.02941742,-0.031132508,0.004664612,12.87809642,77.64608588,2.66
152281950708,-0.40163726,-1.3770081,9.929003,0.040701292,-0.05141449,0.023355102,12.87809642,77.64608588,2.66
152281950729,-0.5961731,-1.6132965,9.990858,0.013092041,-0.040664673,0.068791196,12.87809642,77.64608588,2.66
152281950751,-0.96789706,-0.6696884,8.634964,-0.020742798,-0.0019454956,0.13207397,12.87809642,77.64608588,2.66
152281950772,-0.37136993,0.4351944,9.884735,0.050592043,0.007949829,0.09517975,12.87809642,77.64608588,2.66
152281950793,-0.26716155,-0.7485367,9.764498,0.010401917,0.03128357,0.08626099,12.8780987,77.64605184,3.07
152281950814,0.0716629,-0.27941895,10.50101,0.03642273,0.034700014,0.08699341,12.8780987,77.64605184,3.07
152281950836,-0.38704222,-0.0038894652,9.5763,-0.037483215,0.0075790407,0.005278015,12.8780987,77.64605184,3.07
152281950857,-0.0025131225,-0.78394777,9.271337,0.023475647,-0.0081741335,0.015905762,12.8780987,77.64605184,3.07
152281950878,-0.43130645,-1.4994034,10.201785,-0.019155884,-0.01745453,0.02298584,12.8780987,77.64605184,3.07
152281950899,-0.25878295,-1.0940583,9.284976,-0.06423645,0.0018386841,0.06085205,12.87809997,77.64601621,3.53
152281950920,-0.26285094,-1.409909,10.059293,-0.009024048,-0.0048812865,0.033122253,12.87809997,77.64601621,3.53
152281950941,-0.5308487,-1.432283,10.028903,0.017854309,0.013812256,0.057556152,12.87809997,77.64601621,3.53
152281950963,-0.07812653,-1.7776871,9.633728,0.006614685,0.029692078,0.03960266,12.87809997,77.64601621,3.53
152281950984,-0.3884781,-1.7426331,9.850159,-0.013905334,-0.011224365,0.002104187,12.87809997,77.64601621,3.53
152281951005,-0.6053864,-1.4783478,9.687925,0.023840332,-0.00927124,0.034590147,12.87810462,77.64597867,3.61
152281951027,-0.390271,-1.70327,9.521864,-0.066921994,0.028468322,0.082351685,12.87810462,77.64597867,3.61
152281951048,-0.2633316,-1.6680969,9.304834,-0.02319336,0.055589296,0.045462035,12.87810462,77.64597867,3.61
152281951069,0.051205445,-1.5708297,9.808405,0.10227203,0.010881042,-0.05470886,12.87810462,77.64597867,3.61
152281951090,-0.4494934,-1.9657624,9.250517,0.03348999,-0.015005494,-0.03113098,12.8781082,77.64594081,3.54
152281951111,-0.06879425,-1.911087,10.121387,-0.05042877,-0.02355957,-0.007913208,12.8781082,77.64594081,3.54
152281951133,-0.60813904,-1.8466018,9.340965,1.8310548E-5,-0.018554688,0.026403809,12.8781082,77.64594081,3.54
152281951154,-0.64091796,-1.8494705,10.298454,-0.036509704,0.035554506,0.102264404,12.8781082,77.64594081,3.54
152281951176,-0.28594208,-1.2767502,8.137616,0.08969269,0.047894288,0.034465026,12.8781082,77.64594081,3.54
152281951197,0.15278015,-1.6686951,12.41658,-0.16734925,0.038246155,-0.04872284,12.87811417,77.64590687,2.81
152281951218,-0.87122804,-0.5238495,7.2011857,0.28284758,0.011006164,-0.08403015,12.87811417,77.64590687,2.81
152281951239,-0.29874724,-2.737329,11.292074,0.20795746,0.0141799925,-0.09893646,12.87811417,77.64590687,2.81
152281951261,-0.19549713,0.7301086,8.450717,-0.42891082,0.03763733,-0.13020936,12.87811417,77.64590687,2.81
152281951282,-0.49447936,-0.24771729,8.701245,0.19487914,-0.078904726,-0.21866608,12.87811417,77.64590687,2.81
152281951303,-0.35724792,0.093141176,10.81722,-0.03565216,-0.09124146,-0.15892029,12.87812443,77.64587862,2.69
152281951324,-0.41324157,-0.35443574,8.585073,0.062322997,-0.03883667,0.027261352,12.87812443,77.64587862,2.69
152281951305,-0.61447906,0.3004791,11.264438,-0.03956299,-0.029190063,0.023478698,12.87812443,77.64587862,2.69
152281951326,-0.6880585,0.7468613,9.711615,0.039726257,-0.030897522,0.06524964,12.87812443,77.64587862,2.69
152281951348,0.3381073,-1.1604599,9.612669,0.011384582,0.011129761,0.08015442,12.87813841,77.64584929,3.05
152281951369,-0.77754974,0.32081756,9.127884,-0.23074798,0.041789245,0.051200867,12.87813841,77.64584929,3.05
152281951390,-0.007661438,0.22953339,9.961548,0.021520996,0.027008057,0.017735291,12.87813841,77.64584929,3.05
152281951411,-0.35915986,-0.29963988,10.3062315,0.028114319,0.047161866,-0.0033966065,12.87813841,77.64584929,3.05
152281951432,0.0029891967,-0.7419556,9.626909,0.031533815,0.021995544,-0.03235321,12.87813841,77.64584929,3.05
152281951454,0.038642883,-0.96891326,9.735544,0.015774537,-0.019900512,-0.047987364,12.8781537,77.64581177,3.7
152281951475,-0.39313966,-1.4266586,10.203104,-0.033813477,-0.037980653,-0.014761353,12.8781537,77.64581177,3.7
152281951496,-0.23294525,-1.4702088,8.936697,0.08321686,-0.028329467,0.020663451,12.8781537,77.64581177,3.7
152281951518,-0.3975708,-1.393161,10.604498,-0.058251955,0.0040390017,0.03166046,12.8781537,77.64581177,3.7
152281951539,-0.2586685,-1.1724243,8.83357,0.026281739,-0.0078079225,0.03227234,12.8781537,77.64581177,3.7
152281951560,-0.30401,-1.5390046,9.012192,-0.12067719,0.00513916,0.029579163,12.87816978,77.64577132,3.96
152281951581,-0.18340912,-1.2601197,9.837837,0.019198608,0.016256714,0.03166046,12.87816978,77.64577132,3.96
152281951602,-0.19633332,-1.4309708,9.956877,0.18119507,-0.03089447,-0.026971435,12.87816978,77.64577132,3.96
152281951624,-0.3073593,-1.4267792,10.375624,0.026164245,-0.056056213,0.013578797,12.87816978,77.64577132,3.96
152281951646,-0.6138794,-1.3261627,9.395521,-0.007307434,-0.022589112,0.0774643,12.87816978,77.64577132,3.96
152281951666,-0.5351578,-1.4638687,9.585274,-0.11652069,0.030059814,0.10079956,12.87818403,77.6457327,3.44
152281951687,-0.25555268,-1.14263,10.8246355,-0.06289673,0.05168457,0.08235474,12.87818403,77.6457327,3.44
152281951709,-0.23844758,-1.2732804,9.070577,0.08296814,0.044233702,0.011625672,12.87818403,77.6457327,3.44
152281951730,0.30532226,-1.8468384,10.111217,0.025062561,0.030917358,-0.06802368,12.87818403,77.6457327,3.44
152281951751,-0.6108902,-1.5708282,9.455943,-0.0358963,-0.0379776,-0.07706604,12.87819659,77.64569245,3.83
152281951772,-0.37280577,-1.7638077,9.899091,-0.018186951,-0.003895569,-0.00425415,12.87819659,77.64569245,3.83
152281951794,-0.33942413,-1.7051834,9.462522,0.0042892457,-0.009757996,-0.009381103,12.87819659,77.64569245,3.83
152281951816,-0.56602323,-2.1665223,8.59931,-0.24395294,-0.053617857,0.020539856,12.87819659,77.64569245,3.83
152281951836,-0.41336364,-1.3631287,11.920191,0.3814392,-0.07475281,-0.0049942015,12.87819659,77.64569245,3.83
152281951857,-0.599881,-1.3097748,7.7160006,0.28541106,0.03605194,0.15088959,12.87820731,77.64565757,3.38
152281951879,0.40881348,-2.416333,12.16641,-0.53936005,0.08381347,0.03178253,12.87820731,77.64565757,3.38
152281951900,-0.110787965,-0.55662996,8.437437,0.06574555,0.043621827,-0.08574219,12.87820731,77.64565757,3.38
152281951921,0.050605774,-1.4125397,11.551336,0.009677124,-0.022712708,-0.1693039,12.87820731,77.64565757,3.38
152281951942,-0.63014984,-0.16516265,8.551694,0.07515869,-0.10688019,-0.16746978,12.87820731,77.64565757,3.38
152281951964,-0.8415588,-1.0487121,11.227827,0.041316222,-0.1355896,0.042405702,12.87821978,77.64562507,3.08
152281951986,-0.918367,-0.49214324,8.547986,-0.017321777,-0.06436463,0.17141113,12.87821978,77.64562507,3.08
152281952006,-0.9560547,-0.9649643,10.089323,0.06989746,0.040327452,0.27953798,12.87821978,77.64562507,3.08
152281952027,0.17467347,-0.88289034,7.94655,-0.16269836,0.14880677,0.26475525,12.87821978,77.64562507,3.08
152281952049,0.052760314,-0.8383835,14.516882,0.17045136,0.15821838,-0.005357361,12.87822994,77.64559246,3.43
152281952070,-0.39206392,-0.4001419,9.7185545,0.32694855,0.07172241,-0.07767639,12.87822994,77.64559246,3.43
152281952091,0.6894897,-1.9007995,13.100447,-0.2799881,0.092004396,-0.16661835,12.87822994,77.64559246,3.43
152281952112,0.053598024,0.037268065,8.134506,0.053649902,-0.09686432,-0.3157898,12.87822994,77.64559246,3.43
152281952134,-0.56291354,-0.85298157,11.243141,-0.09074707,-0.19386902,-0.23295288,12.87822994,77.64559246,3.43
152281952155,-1.2239288,-0.5794815,8.515681,0.017488098,-0.15917206,0.06721191,12.87824133,77.64555736,3.53
152281952176,-0.27780914,-1.1902497,11.079595,0.13465424,-0.04420929,0.18912506,12.87824133,77.64555736,3.53
152281952197,-0.244664,-1.0094712,8.954645,-0.07657318,0.08723755,0.19547883,12.87824133,77.64555736,3.53
152281952219,-0.031349182,-1.3666016,10.295586,-0.085861206,0.060969543,0.08760528,12.87824133,77.64555736,3.53
152281952240,-0.20375213,-0.67770386,9.541128,0.10484161,0.0773407,0.060849,12.87824133,77.64555736,3.53
152281952261,-0.6003586,-0.8333603,9.532394,0.011019898,0.09065552,0.018101502,12.87825515,77.64551753,3.84
152281952282,-0.29575348,0.46558228,9.664357,-0.07938232,0.05974579,-0.020748902,12.87825515,77.64551753,3.84
152281952304,-0.076452635,-1.4737991,10.872853,0.041921996,0.017477417,-0.10137787,12.87825515,77.64551753,3.84
152281952325,-0.6836319,-0.04671936,9.232691,0.11449127,-0.008047486,-0.045303345,12.87825515,77.64551753,3.84
152281952346,-0.63577574,-0.54885405,10.131674,-0.17443542,0.0036788941,-0.056907654,12.87825515,77.64551753,3.84
152281952368,-0.09762726,-0.55842286,8.733431,0.04460907,0.008317566,-0.02636261,12.87826898,77.64547701,3.98
152281952389,0.08398743,-1.2436097,9.568167,-0.04677124,0.025170898,-0.0564209,12.87826898,77.64547701,3.98
152281952410,-0.033381652,-0.6424103,8.988623,-0.0118286135,0.027494812,-0.06656189,12.87826898,77.64547701,3.98
152281952431,-0.4265213,-1.6692917,10.211596,0.052308656,0.014302063,-0.072790526,12.87826898,77.64547701,3.98
152281952452,0.17706756,-1.1072204,9.836995,-0.0031555176,0.0022079467,-0.0834198,12.87828397,77.64543244,4.73
152281952474,-0.42819518,-1.9401611,9.325533,0.028848266,-0.10920258,-0.15073395,12.87828397,77.64543244,4.73
152281952495,-1.1467606,-1.9875396,9.6358795,-0.11212311,-0.083789065,0.023960877,12.87828397,77.64543244,4.73
152281952516,-0.45152435,-1.7804397,9.988945,0.122428894,-0.037364196,0.05291138,12.87828397,77.64543244,4.73
152281952537,-0.8203842,-2.1851838,9.47305,0.040338136,-0.004386902,0.08589325,12.87828397,77.64543244,4.73
152281952559,-0.3858444,-1.8409774,9.264395,-0.10943451,0.10360565,0.14978942,12.87830162,77.64538762,4.92
152281952580,0.089968875,-1.8343979,9.506549,-0.052876282,0.087480165,-0.04860382,12.87830162,77.64538762,4.92
152281952601,-0.1931015,-1.4413726,11.0177355,-0.1149353,-0.026382446,-0.13130951,12.87830162,77.64538762,4.92
152281952622,-0.71114653,0.5937225,10.264476,0.5203476,-0.033459473,-0.10076904,12.87830162,77.64538762,4.92
152281952644,-0.05383911,-1.604805,12.853513,-0.10259704,0.003062439,-0.03675232,12.87830162,77.64538762,4.92
152281952665,-0.53742826,0.8150543,8.325455,-0.20350799,0.04435272,-0.0055969236,12.87831849,77.6453475,4.29
152281952686,0.17227936,0.40696105,11.309183,0.07209778,-0.010247802,-0.0966156,12.87831849,77.6453475,4.29
152281952707,-0.46815795,-0.7620514,8.819212,-0.0075561525,-0.08146973,-0.10223236,12.87831849,77.6453475,4.29
152281952729,-0.28893432,-0.31375733,9.809839,-0.036991883,-0.06460571,-0.01378479,12.87831849,77.6453475,4.29
152281952750,-0.3426544,-0.41258392,10.677956,0.011868286,-0.03920288,0.0024688721,12.87833778,77.64530731,4.48
152281952771,-0.6418747,-0.5268402,9.457136,0.029585266,-0.050683595,0.032637022,12.87833778,77.64530731,4.48
152281952792,-0.09655304,-0.5621338,9.308304,-0.121162415,-0.045922853,0.04521332,12.87833778,77.64530731,4.48
152281952814,-0.49986115,0.18753815,9.654185,0.096775815,-0.09392853,0.02872467,12.87833778,77.64530731,4.48
152281952835,-0.8776886,-0.4302887,10.570158,0.023719788,-0.052882385,0.111917116,12.87833778,77.64530731,4.48
152281952856,-0.3781891,-0.7127609,9.606691,0.0023406981,0.035072327,0.173732,12.87835582,77.64526411,4.95
152281952877,-0.011485291,-0.27535248,10.58775,0.09384155,0.062069703,0.07966461,12.87835582,77.64526411,4.95
152281952899,-0.42113954,-0.90717775,9.219292,-0.049819946,0.06683197,0.07905273,12.87835582,77.64526411,4.95
152281952920,-0.24777679,-0.35012817,9.7260895,-0.08513031,0.09419403,0.051078796,12.87835582,77.64526411,4.95
152281952941,-0.23701172,-0.5719452,9.8817425,0.118032835,0.08918762,0.0067443848,12.87835582,77.64526411,4.95
152281952962,-0.4358551,-0.41198426,9.96023,-0.01916046,0.0733078,-0.0405365,12.87838148,77.64520245,5.32
152281953019,0.04330597,-0.48544464,9.967168,-0.10088501,0.06255493,-0.04237213,12.87838148,77.64520245,5.32
152281953041,-0.7049286,-0.2464035,9.8342495,0.049497984,0.04263916,-0.078042604,12.87838148,77.64520245,5.32
152281953062,-0.6423523,-0.9312271,9.766171,-0.036013793,-0.011593628,-0.11102905,12.87838148,77.64520245,5.32
152281953083,-0.3566513,-0.2643463,10.017057,0.021888733,-0.063754275,-0.07523346,12.87838148,77.64520245,5.32
152281953105,-0.856514,-0.7078552,10.371913,0.049986266,-0.07463074,-0.054951478,12.87839736,77.64514229,6.15
152281953125,-0.355336,-0.36915284,10.14268,0.036302187,-0.103703305,-0.018666077,12.87839736,77.64514229,6.15
152281953147,-0.43082732,-1.3637298,10.057495,-0.11835174,-0.06522064,0.03593445,12.87839736,77.64514229,6.15
152281953168,-0.955098,-1.0797012,9.823239,0.0582901,-0.027719116,0.05938568,12.87839736,77.64514229,6.15
152281953189,-0.048454285,-1.8302094,9.667824,-0.03100891,-0.018188477,0.05914154,12.87841703,77.64507795,6.5
152281953211,0.1622345,-0.64540255,10.338534,0.013949585,0.019433593,0.054740906,12.87841703,77.64507795,6.5
152281953232,-0.0073013306,-1.3543991,11.195521,0.05279846,-0.0037780763,0.011384582,12.87841703,77.64507795,6.5
152281953253,-0.7590057,-2.0991623,9.58671,-0.040533446,-0.0235672,0.041181944,12.87841703,77.64507795,6.5
152281953275,-0.19298248,-0.9936798,8.932749,0.08114014,-0.010865783,0.074417114,12.87841703,77.64507795,6.5
152281953295,-0.35126954,-0.9623337,10.600067,-0.0785263,0.0038024902,0.07209168,12.87843158,77.6450244,6.52
152281953317,-0.641156,-1.2134597,9.011952,0.0365509,0.036169432,0.072209165,12.87843158,77.6450244,6.52
152281953338,-0.09690857,-1.2812958,10.289124,-0.08549347,0.07795105,0.05559845,12.87843158,77.6450244,6.52
152281953360,-0.38345185,-1.2888336,9.749182,0.049617004,0.076849364,0.010646057,12.87843158,77.6450244,6.52
152281953381,-0.14536591,-0.7701904,10.887926,0.032025147,0.07367096,-0.023184204,12.87843158,77.6450244,6.52
152281953402,-0.4514084,-1.3853836,8.724574,-0.056292724,0.020898437,-0.06753387,12.87844387,77.6449554,6.78
152281953423,-0.48706055,-1.5997803,8.990662,-0.05067749,-0.020999145,-0.06191864,12.87844387,77.6449554,6.78
152281953445,-0.34181365,-1.5112426,9.447807,-0.03845825,-0.04017639,-0.036135864,12.87844387,77.6449554,6.78
152281953466,-0.25292358,-1.1365296,9.694626,0.013336182,-0.07010803,-0.032836914,12.87844387,77.6449554,6.78
152281953487,-0.50644225,-1.43647,9.400785,-0.0043807984,-0.03236389,0.015538025,12.87845807,77.64489399,6.42
152281953508,-0.67932284,-1.3229309,9.707067,0.09934692,0.042404175,0.0760025,12.87845807,77.64489399,6.42
152281953518,-0.4612198,-1.0661805,10.621843,-0.06411133,0.12119751,0.038253784,12.87845807,77.64489399,6.42
152281953539,-0.31309968,-1.5227325,9.167009,0.104962155,0.12584229,-0.03894806,12.87845807,77.64489399,6.42
152281953560,-0.18041992,-1.0527802,9.959391,-0.1242157,0.12022247,-0.079876706,12.87845807,77.64489399,6.42
152281953581,-0.3434906,-1.1553131,10.077597,0.1598175,0.10506897,-0.12715454,12.87847429,77.64481793,6.48
152281953603,-0.08171692,-1.8122619,9.70336,-0.057028197,0.0692749,-0.19092712,12.87847429,77.64481793,6.48
152281953624,-0.19645233,-1.0418961,9.287008,-0.043592833,-0.058625795,-0.25702363,12.87847429,77.64481793,6.48
152281953645,-0.22277375,-1.1969513,10.210518,0.08798218,-0.21475525,-0.26631317,12.87847429,77.64481793,6.48
152281953666,-1.0871826,-1.0155731,11.449762,-0.0675354,-0.26619416,-0.087329105,12.87847429,77.64481793,6.48
152281953688,-0.80805665,-2.1681962,8.5253725,0.26733246,-0.24005279,0.053890992,12.87849213,77.64476881,5.94
152281953709,-1.051886,-0.81146544,9.7306385,-0.18603821,-0.11983337,0.18179779,12.87849213,77.64476881,5.94
152281953730,-0.5233139,-1.7620147,9.324336,0.035328675,0.0476532,0.22785339,12.87849213,77.64476881,5.94
152281953752,-0.34480438,-1.1439499,9.354246,-0.07314911,0.16566467,0.16750641,12.87849213,77.64476881,5.94
152281953773,0.16797486,-0.3240448,10.384358,0.11058502,0.1846054,0.062075805,12.87851368,77.64473177,5.73
152281953794,0.27601013,-1.621315,10.131197,0.025924683,0.05669098,-0.12605438,12.87851368,77.64473177,5.73
152281953815,-0.4890915,-0.4036087,8.974986,-0.12788239,-0.07108764,-0.123493955,12.87851368,77.64473177,5.73
152281953836,-0.6274017,-1.0648667,10.043617,0.20893097,-0.06509857,0.0028305054,12.87851368,77.64473177,5.73
152281953858,-0.5485565,-1.2745956,10.373947,-0.0615448,0.046546936,0.06708069,12.87851368,77.64473177,5.73
152281953879,-0.08291016,-0.74853516,9.028705,-0.012809753,0.1202179,0.02481842,12.87853059,77.64466871,6.18
152281953900,-0.008018494,-1.2463623,10.3901005,-0.016722107,0.029936219,-0.12837525,12.87853059,77.64466871,6.18
152281953922,-0.19753113,-1.1492141,9.4047365,-0.0070648193,-0.1019928,-0.1360733,12.87853059,77.64466871,6.18
152281953943,-0.6697525,-1.619162,9.811995,0.005761719,-0.14365387,-0.035647582,12.87853059,77.64466871,6.18
152281953964,-0.8187073,-1.4011749,10.049719,-0.006088257,-0.0703537,0.07526855,12.87853059,77.64466871,6.18
152281953985,-0.4443466,-1.6844848,10.0375185,0.046440125,0.0056243897,0.1025116,12.87855415,77.6446124,6.23
152281954006,-0.69703066,-1.6201187,9.513492,-0.01586914,0.04459839,0.075753786,12.87855415,77.6446124,6.23
152281954028,-0.24442597,-1.771466,10.60701,0.0055206297,0.07355042,0.056085207,12.87855415,77.6446124,6.23
152281954049,-0.29862517,-1.89422,9.502722,0.09482117,0.028227234,-0.033206176,12.87855415,77.6446124,6.23
152281954070,-0.64199674,-2.2134216,9.477118,-0.076818846,0.05632324,0.021763612,12.87855415,77.6446124,6.23
152281954091,0.20003815,-1.4556137,9.503917,-0.03882904,0.08833313,-0.019161988,12.87857224,77.64456113,5.67
152281954113,-0.15063019,-1.7319854,9.46671,-0.1812729,-0.04286194,-0.1771286,12.87857224,77.64456113,5.67
152281954134,-0.8640488,-1.271727,9.455225,0.17423554,-0.13058166,-0.10321198,12.87857224,77.64456113,5.67
152281954155,-0.8371307,-1.7394028,10.701765,-0.0044967653,-0.04653015,0.0918808,12.87857224,77.64456113,5.67
152281954176,-0.3239914,-1.6844895,8.290158,-0.26923674,0.053886414,0.1412384,12.8785931,77.6445169,4.96
152281954198,-0.39984283,0.12341003,8.193726,0.17545624,0.12596893,-0.079396054,12.8785931,77.6445169,4.96
152281954219,0.4825119,-2.8976486,11.872571,-0.10882874,0.06757049,-0.09954834,12.8785931,77.6445169,4.96
152281954240,-0.46982878,-0.8259384,8.77722,0.32059327,-0.049461365,-0.14829254,12.8785931,77.6445169,4.96
152281954262,-0.79812926,-0.20440522,10.8265505,0.027627563,-0.050076295,-0.05128479,12.8785931,77.6445169,4.96
152281954283,-0.09415741,-0.7895691,8.602661,-0.010726929,-0.045185853,0.007359314,12.87860496,77.64448089,4.8
152281954304,-0.32709962,-0.51212156,9.870618,-0.061178587,-0.047138978,0.00307312,12.87860496,77.64448089,4.8
152281954325,-0.64139557,-0.5432297,9.118195,-0.0826828,-0.060948182,0.01871338,12.87860496,77.64448089,4.8
152281954346,-0.41013184,-0.47587126,9.675125,0.09408722,-0.030041505,0.08552857,12.87860496,77.64448089,4.8
152281954367,-0.7170105,-0.13058624,10.271894,-0.080970764,0.022244263,0.08125305,12.87860496,77.64448089,4.8
152281954389,-0.27864534,-0.08452606,9.494944,0.06464539,0.08429871,0.07563019,12.87862654,77.64443857,5.04
152281954410,-0.08745728,-1.0488358,9.561106,-0.111514285,0.08674469,-0.0058410643,12.87862654,77.64443857,5.04
152281954431,-0.16343078,0.15033111,9.284254,-0.008410645,0.078071594,-0.03943634,12.87862654,77.64443857,5.04
152281954452,0.3000595,-0.8769104,10.649246,0.0741745,0.021144103,-0.094781496,12.87862654,77.64443857,5.04
152281954474,-0.18089752,-0.91268003,9.414785,-0.011714173,-0.053860474,-0.10137634,12.87864725,77.6443882,5.61
152281954495,-0.57906497,-1.2034118,10.363419,0.067575075,-0.08232422,-0.07450104,12.87864725,77.6443882,5.61
152281954517,-0.4465027,-1.5173477,9.832809,-0.06936798,-0.1331482,-0.029545594,12.87864725,77.6443882,5.61
152281954538,-0.655513,-1.1226532,9.368841,-0.019770812,-0.095272824,0.058410645,12.87864725,77.6443882,5.61
152281954559,-0.5954544,-1.1250427,10.088842,0.046076965,0.02798462,0.13928223,12.87864725,77.6443882,5.61
152281954580,-0.23485717,-1.2224319,9.86954,-0.015985107,0.09334107,0.10544129,12.87866584,77.64434891,5.67
152281954602,-0.37495574,-1.4217545,9.460608,-0.03174286,0.08234863,0.019567871,12.87866584,77.64434891,5.67
152281954622,-0.14081879,-1.0859222,9.851593,-0.0045043947,0.07147522,0.003930664,12.87866584,77.64434891,5.67
152281954644,-0.23856354,-1.1420349,9.883303,0.119622804,0.041906737,-0.0754776,12.87866584,77.64434891,5.67
152281954665,-0.22875519,-1.4042877,9.580847,-0.104795836,-0.010253906,-0.048721313,12.87866584,77.64434891,5.67
152281954686,-0.3980484,-1.0018127,9.911774,-0.0071792603,-0.03846588,-0.045057677,12.87868544,77.64428373,5.94
152281954707,-0.30783996,-2.1105285,10.34284,0.107040405,-0.0018203736,-8.3312986E-4,12.87868544,77.64428373,5.94
152281954729,-0.7572113,-1.5679581,8.536621,-0.21559906,0.003187561,0.072459415,12.87868544,77.64428373,5.94
152281954750,-0.017826844,-0.66933286,9.3093815,0.30899048,0.04362335,-0.010604858,12.87868544,77.64428373,5.94
152281954771,-0.28594208,-2.0450835,10.7509365,-0.14169769,0.053024292,-0.041755676,12.87868544,77.64428373,5.94
152281954793,-0.35964203,-0.67411804,8.33598,-0.0589859,0.011860657,-0.047987364,12.87870978,77.64423852,5.78
152281954814,-0.53180695,-0.9713074,10.898096,0.047418214,0.015769958,-0.077674866,12.87870978,77.64423852,5.78
152281954835,-0.18496704,-1.1141555,9.052271,-0.048477173,-0.0030456544,-0.049211122,12.87870978,77.64423852,5.78
152281954857,-0.18939361,-0.92129517,9.783163,0.08492889,-0.03565979,-0.08036499,12.87870978,77.64423852,5.78
152281954877,-0.49627382,-1.1740967,10.030817,-0.07620545,-0.057037354,-0.044812012,12.87872996,77.64419452,5.99
152281954899,-0.5014175,-0.9362503,9.401503,0.031417847,-0.02576294,0.0077194213,12.87872996,77.64419452,5.99
152281954920,-0.6278763,-0.9972671,10.094228,0.0022140504,0.04032135,0.033613585,12.87872996,77.64419452,5.99
152281954941,0.117967226,-0.6972076,9.983683,0.04497528,0.07978363,0.0013641358,12.87872996,77.64419452,5.99
152281954963,-0.17970124,-1.1614166,9.926371,0.008569336,0.06585388,-0.0663147,12.87872996,77.64419452,5.99
152281954984,-0.09619293,-1.1741012,9.679791,0.01357727,1.373291E-5,-0.10443115,12.87875479,77.64414687,5.93
152281955005,-0.6386429,-1.1254044,9.800029,0.037399292,-0.055448912,-0.09710083,12.87875479,77.64414687,5.93
152281955026,-0.38273317,-1.1121231,9.760546,0.011625672,-0.04506073,-0.036749266,12.87875479,77.64414687,5.93
152281955048,-0.58552706,-1.0374664,9.627508,-0.010366822,-0.019529724,-0.015733337,12.87875479,77.64414687,5.93
152281955069,-0.4924423,-1.0721633,9.535502,-0.032476805,0.016744995,0.019813538,12.87875479,77.64414687,5.93
152281955090,-0.70050204,-1.300319,9.684934,-0.004498291,0.08051453,0.030189514,12.87877875,77.64410434,5.81
152281955111,0.0015548706,-1.015094,9.832809,-0.0021804809,0.13402557,-0.024288941,12.87877875,77.64410434,5.81
152281955133,-0.1777893,-1.3762894,9.760668,-0.013417053,0.1154541,-0.122270204,12.87877875,77.64410434,5.81
152281955154,0.017585754,-1.0251465,9.760671,0.0187088,0.01161499,-0.22391662,12.87877875,77.64410434,5.81
152281955175,-0.64486694,-1.2553345,10.458415,0.06989594,-0.13265686,-0.24370727,12.87880145,77.64406186,5.63
152281955196,-0.86058044,-1.0381867,9.363579,0.028237915,-0.15770416,-0.07364502,12.87880145,77.64406186,5.63
152281955217,-0.7203598,-1.467337,9.111613,-0.08512726,-0.0391983,0.05926056,12.87880145,77.64406186,5.63
152281955239,-0.5368301,-0.7163528,10.381485,-0.10430603,0.0871109,0.05302887,12.87880145,77.64406186,5.63
152281955260,-0.0067001344,-0.9652054,10.904915,0.451564,0.12681732,-0.051164247,12.87880145,77.64406186,5.63
152281955281,0.010046387,-2.3623734,9.553331,-0.2125473,0.06793518,-0.18262024,12.8788369,77.64402753,5.34
152281955302,-0.2260025,-0.29365844,9.655264,-0.010482788,-0.06644287,-0.2117035,12.8788369,77.64402753,5.34
152281955324,-0.25100708,-2.087915,10.212915,0.15982361,-0.17871857,-0.21182251,12.8788369,77.64402753,5.34
152281955345,-1.0054672,-0.91016996,8.4058485,-0.26239625,-0.19191284,-0.0019348145,12.8788369,77.64402753,5.34
152281955366,-0.6210602,-1.1367706,9.334387,0.060002137,-0.07218323,0.07001495,12.8788369,77.64402753,5.34
152281955387,-0.9485153,-1.2150147,10.508784,-0.041879274,0.024197388,0.15272827,12.8788789,77.64397791,5.67
152281955409,-0.35318145,-0.891745,9.931992,0.11522522,0.17605133,0.15919952,12.8788789,77.64397791,5.67
152281955430,0.3822525,-1.4849274,9.8087635,-0.07693939,0.17116699,-0.03968506,12.8788789,77.64397791,5.67
152281955451,-0.3041275,-0.9131592,9.719271,-0.00499115,0.06964111,-0.18983611,12.8788789,77.64397791,5.67
152281955472,-0.03613434,-1.3967469,10.418096,0.06623993,-0.029301453,-0.17675781,12.8789084,77.6439435,5.27
152281955494,-0.5615967,-1.1809189,9.7890215,0.036427308,-0.12386169,-0.17822266,12.8789084,77.6439435,5.27
152281955515,-1.0363327,-1.3811982,9.905194,0.08003845,-0.12460022,-0.010368347,12.8789084,77.6439435,5.27
152281955537,-0.47019044,-0.98398745,9.615903,-0.0529953,-0.041156005,0.05205078,12.8789084,77.6439435,5.27
152281955557,-0.6007187,-1.2623917,10.190417,-0.03992462,0.004649353,0.06427155,12.8789084,77.6439435,5.27
152281955579,-0.13328095,-0.82127535,9.454987,0.010401917,0.034825135,0.023226928,12.8789365,77.64391265,4.49
152281955600,-0.28762054,-1.1806809,10.470976,0.027139282,-0.027105713,-0.07767792,12.8789365,77.64391265,4.49
152281955621,-0.43274078,-1.2993622,9.884377,0.03752289,-0.11078949,-0.040899657,12.8789365,77.64391265,4.49
152281955642,-0.86321414,-1.2535385,9.447687,0.026771545,-0.10797882,0.071969606,12.8789365,77.64391265,4.49
152281955664,-0.5207993,-1.029213,10.702603,-0.021601867,-0.03321228,0.12804107,12.8789365,77.64391265,4.49
152281955685,-0.32135773,-1.0819747,9.608485,0.08186798,6.210327E-4,0.15504304,12.87895464,77.64388888,3.91
152281955706,-0.2717041,-1.3121628,9.651556,-0.10711517,0.047650147,0.13989563,12.87895464,77.64388888,3.91
152281955727,-0.28546447,-0.76241606,9.970757,-0.007676697,0.06903076,0.110816956,12.87895464,77.64388888,3.91
152281955749,-0.14751892,-1.691185,9.699649,-0.026487732,0.039712526,0.023838807,12.87895464,77.64388888,3.91
152281955770,-0.2501709,-0.91603243,8.7623825,-0.026243592,-0.009031678,0.01835022,12.87895464,77.64388888,3.91
152281955791,-0.45069122,-1.392923,10.437479,-0.01476593,-0.018434143,0.012359619,12.87897106,77.64387372,3.75
152281955812,-0.6013153,-1.4723663,6.5924516,-0.21181794,-0.10358582,0.068058774,12.87897106,77.64387372,3.75
152281955834,-0.6519272,-0.13764648,9.691516,0.2735626,-0.050323486,0.020292664,12.87897106,77.64387372,3.75
152281955855,-0.06747742,-1.017247,8.357994,0.2221344,0.064639285,0.081503294,12.87897106,77.64387372,3.75
152281955876,-0.89467776,0.4107895,9.912496,-0.12409973,0.03592987,0.13171235,12.8789912,77.64385066,3.61
152281955897,-0.33834687,-0.73477477,10.093269,0.014311219,0.022608947,0.01980896,12.8789912,77.64385066,3.61
152281955919,-0.09571381,-0.0611969,9.737699,-0.02978363,-0.05263977,-0.006689453,12.8789912,77.64385066,3.61
152281955940,-0.075611874,-0.5622528,8.985632,-0.0047470094,-0.10113678,-0.006942749,12.8789912,77.64385066,3.61
152281955961,-0.24287109,-1.2077163,9.075122,-0.005970764,-0.07927094,0.111184694,12.8789912,77.64385066,3.61
152281955982,-0.31824493,-1.1065018,9.113406,0.018222045,-0.036021423,0.1552887,12.87901665,77.64381635,3.7
152281956004,-0.29766998,-1.5472596,9.373387,-0.025999451,6.225586E-4,0.1639618,12.87901665,77.64381635,3.7
152281956025,-0.7039703,-1.6182053,9.375903,-0.007800293,0.09346314,0.2503418,12.87901665,77.64381635,3.7
152281956046,0.05682831,-1.3895721,9.902562,-0.04994049,0.16102143,0.15382537,12.87901665,77.64381635,3.7
152281956067,-0.03386078,-1.4602798,9.656698,0.058535766,0.13732453,-0.019892883,12.87901665,77.64381635,3.7
152281956089,-0.19166717,-1.2683731,10.179892,0.021641541,0.064387515,-0.07987366,12.87904969,77.64379307,4.13
152281956110,-0.23042908,-1.4292939,9.546511,-9.552002E-4,-0.019903565,-0.12911224,12.87904969,77.64379307,4.13
152281956132,-0.7136612,-1.0886749,10.311613,-0.053121947,-0.0051177978,5.096436E-4,12.87904969,77.64379307,4.13
152281956152,0.13830414,-1.711647,9.715204,-0.0031555176,-0.026733398,-0.0622818,12.87904969,77.64379307,4.13
152281956174,-0.682193,-1.744188,9.977575,0.031048585,-0.08280945,-0.07107697,12.87906923,77.64374955,4.47
152281956195,-0.57224274,-1.5823166,9.496259,0.033859253,-0.042866517,0.043017577,12.87906923,77.64374955,4.47
152281956216,-0.32339326,-1.3832306,10.104517,-0.035528563,0.0152771,0.08418427,12.87906923,77.64374955,4.47
152281956237,-0.24753876,-1.1334213,9.643181,-0.0020568848,0.03457489,0.008695984,12.87906923,77.64374955,4.47
152281956259,-0.44171602,-1.7632096,9.2642765,-0.05653534,0.029324342,0.015415954,12.87906923,77.64374955,4.47
152281956280,0.20841369,-1.5181854,10.756203,-0.08806305,0.0035552979,-0.05959625,12.87909293,77.64370664,4.55
152281956301,-0.5125443,-1.3503265,10.809683,0.120362855,-0.079396054,-0.06252594,12.87909293,77.64370664,4.55
152281956322,-0.95569456,-0.37632903,8.411237,0.19903564,-0.091976926,0.0085723875,12.87909293,77.64370664,4.55
152281956344,-0.14787903,-3.1979446,10.111931,-0.27277526,-0.02111969,0.042893983,12.87909293,77.64370664,4.55
152281956365,-0.7871216,-0.8666199,8.536619,0.17862701,0.046676636,0.15467834,12.87909293,77.64370664,4.55
152281956386,-0.23712921,-0.9064636,10.348703,-0.0048645018,0.07037659,0.104464725,12.87911517,77.64366995,4.15
152281956407,-0.35342103,-0.6688553,9.355324,-0.075595096,0.054370116,0.042897034,12.87911517,77.64366995,4.15
152281956429,0.10049744,-1.2373886,10.4384365,0.054014586,0.009416198,-0.04689026,12.87911517,77.64366995,4.15
152281956450,-0.9303314,-0.50949097,9.267744,-0.037971497,-0.028573608,-0.027096558,12.87911517,77.64366995,4.15
152281956471,-1.0432708,-0.9218933,9.793332,-0.053608704,-0.06876526,0.038494874,12.87911517,77.64366995,4.15
152281956492,-0.6059845,-0.35790712,11.113213,0.0617157,-0.026617432,0.11411438,12.87913712,77.64362986,4.16
152281956514,-0.57666934,-1.0658249,9.970281,0.06965332,0.03177643,0.11766052,12.87913712,77.64362986,4.16
152281956535,-0.36598206,-0.8332413,8.991496,-0.08585815,0.06878815,0.10018768,12.87913712,77.64362986,4.16
152281956556,-0.26381072,-1.214418,10.439032,-0.05140991,0.13158265,0.051686097,12.87913712,77.64362986,4.16
152281956577,-0.058027647,-0.88588256,9.84944,0.0031951903,0.13500214,-0.052264404,12.87915285,77.64359185,4.19
152281956598,-0.124305725,-0.7387222,9.7153225,0.12658386,0.051560976,-0.19178315,12.87915285,77.64359185,4.19
152281956620,-0.6496536,-1.1925201,9.971356,0.0028274537,0.008192444,-0.1701599,12.87915285,77.64359185,4.19
152281956641,-0.690567,-0.89736634,9.501404,-0.011950684,0.04105072,-0.09429169,12.87915285,77.64359185,4.19
152281956662,-0.70073855,-1.1444244,10.248922,-0.0012039185,0.08625641,-0.096003726,12.87915285,77.64359185,4.19
152281956684,-0.3809387,-0.64648134,8.986948,0.035569765,0.09309387,-0.14364624,12.87917043,77.64355297,4.35
152281956705,0.030384827,-1.1913223,10.630339,0.06134491,-0.0016952514,-0.3578186,12.87917043,77.64355297,4.35
152281956726,-0.5199646,-1.4974899,8.591652,-0.14034882,-0.1318039,-0.3164032,12.87917043,77.64355297,4.35
152281956747,-0.7688141,-0.5693115,10.730959,0.1640915,-0.16161194,-0.18213348,12.87917043,77.64355297,4.35
152281956768,-1.1568115,-0.8910263,11.064278,0.25401154,-0.14658813,-0.05923004,12.87917043,77.64355297,4.35
152281956790,-0.9087952,-1.3057038,8.486252,-0.18896942,-0.13241425,0.0071060183,12.87919526,77.64351531,4.61
152281956811,-0.08219452,-0.46115723,10.720189,-0.14511566,-0.10883789,-0.0047424315,12.87919526,77.64351531,4.61
152281956832,-0.48191833,-1.1979065,9.795603,0.15480956,-0.16258697,0.07844238,12.87919526,77.64351531,4.61
152281956853,-0.5600403,-0.80979,9.62428,-0.023434449,-0.11347504,0.1774002,12.87919526,77.64351531,4.61
152281956875,-0.49687195,-0.6048447,9.98643,0.052182008,-0.07682495,0.2235794,12.87922283,77.6434836,4.27
152281956896,-0.27122802,-0.83156586,9.390379,-0.0124435425,0.007096863,0.2854065,12.87922283,77.6434836,4.27
152281956917,-0.6181885,-1.0524216,9.881864,0.023721313,0.100308225,0.2867508,12.87922283,77.6434836,4.27
152281956939,-0.06711884,-1.60038,9.8500395,-0.0016906739,0.17239074,0.22357635,12.87922283,77.6434836,4.27
152281956960,0.11904144,-1.0533798,9.909381,-9.567261E-4,0.16187897,0.08406067,12.87922283,77.6434836,4.27
152281956981,-0.08578644,-1.341835,9.699292,0.014190674,0.09554138,-0.04652252,12.87924239,77.64345573,3.88
152281957002,-0.24622193,-1.4246292,10.032013,-0.0074295043,0.011245728,-0.08830414,12.87924239,77.64345573,3.88
152281957024,-0.151828,-1.3549957,9.6041765,-2.3040772E-4,-0.028572083,-0.02953949,12.87924239,77.64345573,3.88
152281957045,-0.505603,-1.0378265,9.664238,-0.00939331,-0.055444337,-0.03125458,12.87924239,77.64345573,3.88
152281957066,-0.5310898,-1.1683563,9.274325,0.010401917,-0.037852477,0.037887573,12.87924239,77.64345573,3.88
152281957087,-0.45296326,-1.1465805,9.771199,-0.028204346,0.0022125244,0.063294984,12.87925783,77.64342709,4.07
152281957108,-0.31992036,-1.1097305,9.692952,-0.008660888,0.033354186,0.063172914,12.87925783,77.64342709,4.07
152281957130,-0.32398835,-0.817807,9.633966,-7.171631E-4,0.051927187,0.029457092,12.87925783,77.64342709,4.07
152281957151,-0.482872,-1.6064819,9.782442,-0.0029174804,0.05119171,0.007115173,12.87925783,77.64342709,4.07
152281957172,0.0047851563,-1.8270981,9.728006,-0.01977539,0.033717345,-0.04273529,12.87927209,77.64339744,3.57
152281957194,-0.5321671,-1.9764115,9.826111,0.0030715943,-0.009269714,-0.061427306,12.87927209,77.64339744,3.57
152281957215,-0.35724792,-2.0345566,9.678833,0.010157776,0.016986083,-0.02074585,12.87927209,77.64339744,3.57
152281957236,-0.2694336,-1.793956,9.87959,0.045829773,0.01869812,-0.06496887,12.87927209,77.64339744,3.57
152281957257,0.09906311,-2.0357575,9.903162,0.016142273,-0.030767823,-0.10113373,12.87927209,77.64339744,3.57
152281957278,-0.79154664,-1.6568496,9.460848,-0.0038925172,-0.08623047,-0.10113373,12.87928828,77.64336622,3.9
152281957300,-0.24837646,-1.6292145,8.05602,-0.105895996,-0.06656647,0.04924774,12.87928828,77.64336622,3.9
152281957321,-0.08782043,-1.2383454,13.507948,0.0067443848,0.005873108,0.0725769,12.87928828,77.64336622,3.9
152281957342,-0.4698349,-1.0661819,7.1599092,0.49628296,0.017361451,0.07197113,12.87928828,77.64336622,3.9
152281957363,-0.34049684,-3.2953353,11.880231,-0.4853607,0.017231751,0.0144317625,12.87928828,77.64336622,3.9
152281957385,-0.70552367,-0.47168428,7.6819015,-0.37516174,0.051072694,-0.010969544,12.87930383,77.64333565,3.53
152281957406,-0.3680191,-0.81457675,10.610956,0.71508634,-0.033209227,-0.091114804,12.87930383,77.64333565,3.53
152281957427,-0.5671005,-1.6110275,8.593328,0.17728882,-0.0053665163,-0.03516388,12.87930383,77.64333565,3.53
152281957448,-0.61400145,-0.9721451,10.238034,-0.4681305,0.0061187744,0.033247374,12.87930383,77.64333565,3.53
152281957470,-0.36203307,-0.8696106,8.293271,0.12475433,0.06280212,-0.0016891479,12.87930383,77.64333565,3.53
152281957491,-0.24598083,-0.6607193,11.351295,-0.017204285,0.04410858,-0.048599243,12.87931623,77.64331106,2.88
152281957512,-0.42544708,0.42897338,9.252194,0.035942078,0.019067382,-0.07535553,12.87931623,77.64331106,2.88
152281957533,-0.111027524,-0.6735199,10.5190735,0.033493042,-0.026863098,-0.13387604,12.87931623,77.64331106,2.88
152281957555,-0.59880674,0.51978,9.989302,-0.061302185,-0.076826476,-0.10406494,12.87931623,77.64331106,2.88
152281957576,-0.6203415,0.40779573,9.666151,0.06525574,-0.08562317,-0.013906861,12.87932766,77.64329079,2.66
152281957597,-0.68542325,0.31687012,10.182884,-0.07621002,-0.054345705,0.077955626,12.87932766,77.64329079,2.66
152281957619,0.02955017,0.051745605,10.397517,0.015289307,0.02236786,0.13390808,12.87932766,77.64329079,2.66
152281957640,-0.6818344,0.1182663,10.03082,-0.0092636105,0.071229555,0.08699341,12.87932766,77.64329079,2.66
152281957661,-0.4593033,-0.06203308,9.709702,-0.024165343,0.07342835,0.025550842,12.87932766,77.64329079,2.66
152281957682,-0.31776887,0.048394777,10.251915,0.007713318,0.050462343,-0.041026305,12.8793406,77.64327025,2.97
152281957703,-0.31824645,0.056768797,9.953052,-0.013905334,-0.0074386597,-0.069244385,12.8793406,77.64327025,2.97
152281957701,-0.6153137,-0.2971298,9.790337,0.014308167,-0.053495787,-0.052996825,12.8793406,77.64327025,2.97
152281957722,-0.5266617,-0.433757,9.8329315,0.0025848388,-0.05239868,0.013334656,12.8793406,77.64327025,2.97
152281957743,-0.53371733,-0.16696015,9.810201,-0.0059677125,-0.026620483,0.03177643,12.8793406,77.64327025,2.97
152281957764,-0.2797226,-0.5689529,9.855902,-0.024171447,-0.002067566,0.038853455,12.8793568,77.64324382,3.67
152281957786,-0.27302092,-0.7528427,9.731354,-0.011341858,0.022732545,0.035806276,12.8793568,77.64324382,3.67
152281957806,-0.41791075,-0.47335967,9.795842,-0.005844116,0.044596862,0.025061036,12.8793568,77.64324382,3.67
152281957828,-0.3444519,-1.4352722,10.278356,-0.015255737,0.04777069,-0.009262085,12.8793568,77.64324382,3.67
152281957849,-0.99661255,-1.2720855,9.787107,7.5073243E-4,0.04508362,-0.011705017,12.87937486,77.64321344,3.93
152281957871,-0.056115724,-1.2897934,9.748103,-7.1868894E-4,0.058276366,-0.018666077,12.87937486,77.64321344,3.93
152281957891,-0.30700073,-1.2232697,9.50356,-0.0048706057,0.028961182,-0.077796936,12.87937486,77.64321344,3.93
152281957913,-0.41766968,-1.041774,9.931394,0.0150466915,-0.023927307,-0.10711823,12.87937486,77.64321344,3.93
152281957934,-0.28714293,-1.2566497,10.000546,0.005882263,-0.07670746,-0.084272765,12.87937486,77.64321344,3.93
152281957955,-0.51960295,-1.2686126,9.634207,-0.003034973,-0.09100189,-0.042855836,12.87939659,77.64317798,4.73
152281957976,-0.3939804,-1.5303894,9.094386,0.016999817,-0.09918213,-0.0029067993,12.87939659,77.64317798,4.73
152281957998,-0.12418823,-1.142273,11.649442,0.016516114,-0.13046417,0.0036880493,12.87939659,77.64317798,4.73
152281958019,-0.63601226,-2.4315262,11.156044,0.112911984,-0.110183716,0.058294676,12.87939659,77.64317798,4.73
152281958041,-0.73076785,-0.044926453,8.784276,-0.049821474,-0.079148866,0.15223236,12.87939659,77.64317798,4.73
152281958061,-0.34217376,-0.51212466,10.751894,0.06452179,-0.03175049,0.16042022,12.87942071,77.64313541,4.96
152281958083,-0.5057251,-0.31136322,9.672254,-0.026126098,0.01820984,0.18790893,12.87942071,77.64313541,4.96
152281958121,-0.4506897,-0.52468264,9.520666,0.029707337,0.06585083,0.17483215,12.87942071,77.64313541,4.96
152281958142,-0.5528641,-0.41329956,9.9396515,-0.037973024,0.10385132,0.14722443,12.87942071,77.64313541,4.96
152281958163,-0.26608124,-0.17341919,10.171275,-0.004621887,0.12376404,0.080882266,12.8794442,77.64305848,5.35
152281958184,-0.10074158,-0.7558319,9.783519,0.028356934,0.12168427,0.031658936,12.8794442,77.64305848,5.35
152281958206,-0.1691742,-0.5614166,9.830775,-0.034547426,0.09187774,-0.01439209,12.8794442,77.64305848,5.35
152281958227,-0.26369324,-0.7620529,9.932592,0.031539917,0.026148986,-0.07352142,12.8794442,77.64305848,5.35
152281958248,-0.18090057,-0.5761322,10.326451,-0.015982056,-0.008906555,-0.05654297,12.8794442,77.64305848,5.35
152281958269,-0.11366119,-0.65784454,10.057378,0.017118836,-0.031140137,-0.038095094,12.87946955,77.64299986,6.4
152281958290,-0.39613342,-1.043927,9.903284,0.019073486,-0.008293152,-0.006211853,12.87946955,77.64299986,6.4
152281958312,-0.83808744,-0.558905,9.521266,-0.003036499,0.024928283,-0.006326294,12.87946955,77.64299986,6.4
152281958333,-0.011488343,-0.8084747,9.887367,-0.020864869,0.015400696,-0.032717895,12.87946955,77.64299986,6.4
152281958354,-0.8017181,-0.54873353,9.593172,0.010406494,-0.016970824,-0.037362672,12.87946955,77.64299986,6.4
152281958375,-0.39302063,-0.83300173,9.874565,0.01699524,-0.012083435,-0.016227722,12.87949199,77.64294232,6.58
152281958397,-0.7002594,-0.6195618,9.630617,-0.009510803,0.01600952,-0.001322937,12.87949199,77.64294232,6.58
152281958418,-0.4906494,-0.7813156,9.906392,-0.0012039185,0.029327393,-0.014515686,12.87949199,77.64294232,6.58
152281958439,-0.328537,-0.99140626,9.7375765,-0.02392273,0.035801698,-0.02709961,12.87949199,77.64294232,6.58
152281958461,-0.43609315,-1.294934,9.796321,-0.0021820068,0.025170898,-0.042245485,12.87949199,77.64294232,6.58
152281958482,-0.25794983,-0.82498777,9.643778,0.012236023,-0.013543701,-0.07046966,12.879533,77.64287123,7.4
152281958503,-0.5714081,-0.8871994,10.139931,0.005267334,-0.03675537,-0.061668396,12.879533,77.64287123,7.4
152281958524,-0.22959594,-0.5885757,9.695702,0.009303284,-0.03442993,-0.02685852,12.879533,77.64287123,7.4
152281958546,0.014955139,-1.6897522,9.957356,-0.0010818482,-0.026371766,-0.029785156,12.879533,77.64287123,7.4
152281958567,-0.7079178,-1.2711289,9.688045,-0.012687683,-0.058137514,-0.019888306,12.8795686,77.64280439,7.41
152281958588,-0.68027955,-1.4016556,9.253149,-0.0023010254,-0.050071716,0.01614685,12.8795686,77.64280439,7.41
152281958609,-0.8123627,-1.3455414,9.612793,-0.015130615,0.034089662,0.06341247,12.8795686,77.64280439,7.41
152281958631,-0.59832764,-1.6018143,10.114688,3.845215E-4,0.07391815,0.026893616,12.8795686,77.64280439,7.41
152281958652,-0.15302125,-1.8239883,9.394447,0.0029556274,0.049850464,-0.04029236,12.8795686,77.64280439,7.41
152281958673,-0.23210296,-1.2550949,10.390455,0.05365448,-0.016238403,-0.09526825,12.87960755,77.64274744,7.38
152281958694,-1.0409973,-0.07388,8.737495,-0.03283844,-0.083300784,-0.03968048,12.87960755,77.64274744,7.38
152281958716,0.041993715,-0.60496217,9.56027,0.014918518,-0.07499237,0.003567505,12.87960755,77.64274744,7.38
152281958737,-0.3652664,-1.3790451,9.143558,-0.027467346,-0.02307434,0.0588974,12.87960755,77.64274744,7.38
152281958758,0.20243225,-1.3457794,9.622243,0.0154067995,0.047044374,0.061460875,12.87960755,77.64274744,7.38
152281958779,-0.28474885,-0.44990692,9.427109,0.033493042,0.064633176,0.014926148,12.879638,77.64268273,7.27
152281958801,-0.033618163,-0.49250183,8.793248,-0.023188781,0.06352997,-0.013903809,12.879638,77.64268273,7.27
152281958822,-0.2645279,-1.7305511,9.087927,8.7127683E-4,0.07513885,-0.018055726,12.879638,77.64268273,7.27
152281958843,-0.053240966,-1.4236695,10.628067,-5.966186E-4,0.06023407,-0.06985626,12.879638,77.64268273,7.27
152281958864,0.033018492,-1.3905274,9.220607,2.609253E-4,0.014790344,-0.106752016,12.879638,77.64268273,7.27
152281958886,-1.0006775,-1.0164093,9.847647,0.023474121,-0.051416017,-0.12226715,12.87967666,77.64262054,7.09
152281958907,-0.7812592,-1.234877,9.879354,-0.020021057,-0.07511902,-0.058251955,12.87967666,77.64262054,7.09
152281958928,-0.19740753,-1.1536407,9.69092,0.024569701,-0.036634825,-0.012684631,12.87967666,77.64262054,7.09
152281958949,0.08518372,-1.2134597,10.427309,0.00697937,-0.026124572,-0.027220154,12.87967666,77.64262054,7.09
152281958970,-0.355455,-1.0554138,9.89993,-0.01134491,-0.017210389,-0.010604858,12.8797161,77.64255866,7.04
152281958992,-0.52474976,-1.1544755,10.196402,0.0013626099,0.01234436,0.0127304075,12.8797161,77.64255866,7.04
152281959013,-0.76331484,-0.9827927,9.8888035,0.014065552,0.046553038,0.010533142,12.8797161,77.64255866,7.04
152281959034,-0.97232515,-1.2336792,9.448405,0.006491089,0.09896393,0.008576965,12.8797161,77.64255866,7.04
152281959056,-0.31980437,-1.4152924,9.885335,-0.0162323,0.16481476,-0.006207275,12.8797161,77.64255866,7.04
152281959077,-0.119522095,-1.1807969,10.190778,0.01467743,0.20635223,-0.088056944,12.87974614,77.64252017,6.29
152281959098,-0.37160492,-1.2972091,9.649042,0.0326355,0.18154602,-0.19618073,12.87974614,77.64252017,6.29
152281959119,0.15278015,-1.4127839,10.062523,0.080281064,0.114723206,-0.27877045,12.87974614,77.64252017,6.29
152281959141,-0.34552306,-1.2439682,9.932355,0.051815797,0.03384552,-0.30638275,12.87974614,77.64252017,6.29
152281959162,-0.15816955,-1.4487946,10.055463,0.074661255,-0.024902344,-0.3045517,12.87974614,77.64252017,6.29
152281959183,-1.0677979,-1.4112275,10.177017,0.024813842,-0.05544739,-0.26594543,12.87978827,77.6424734,6.24
152281959204,-0.6229736,-1.3198211,9.370041,0.054747008,-0.046037294,-0.22904663,12.87978827,77.6424734,6.24
152281959226,-0.5599228,-1.0390228,10.103681,0.016021729,-0.031500243,-0.20827942,12.87978827,77.6424734,6.24
152281959247,-0.44578552,-1.2108276,9.953171,0.051325988,-0.0091522215,-0.2064499,12.87978827,77.6424734,6.24
152281959268,-0.53647155,-1.2907486,9.691754,0.042164613,-0.015505982,-0.21573333,12.87983011,77.64245706,6.09
152281959289,-0.48753816,-1.2388245,10.071495,0.081021115,-0.03834381,-0.22245178,12.87983011,77.64245706,6.09
152281959311,0.0844635,-1.0081558,11.822565,-0.029666137,-0.04763031,-0.2047348,12.87983011,77.64245706,6.09
152281959332,-0.06113739,-1.2687333,10.017416,0.12560883,-0.12801361,-0.21365508,12.87983011,77.64245706,6.09
152281959353,-0.60598147,-0.3293106,10.259212,-0.025997926,-0.1892273,-0.1519516,12.87983011,77.64245706,6.09
152281959374,-1.1315689,-0.35993958,9.756002,0.0378891,-0.1084671,0.014680481,12.87988001,77.64244295,6.24
152281959395,-0.2015976,-0.8327621,10.441786,0.0016052246,-0.013549805,0.028967286,12.87988001,77.64244295,6.24
152281959416,-0.2065033,-0.024107361,10.021009,-0.026002502,0.057302855,0.019935608,12.87988001,77.64244295,6.24
152281959438,-0.1610382,-0.37633055,10.436998,0.033613585,0.060479738,-0.04701233,12.87988001,77.64244295,6.24
152281959459,0.19704589,-0.47156373,9.965494,-0.024536133,0.0027008057,-0.09526978,12.87988001,77.64244295,6.24
152281959480,0.31381685,-0.7305878,10.054144,0.025308227,-0.08476563,-0.10723877,12.87993814,77.64241919,6.49
152281959501,-0.3858429,-1.0462005,9.992534,-0.014028931,-0.1347351,-0.042858887,12.87993814,77.64241919,6.49
152281959523,-0.6558746,-0.34510344,9.67333,0.035202026,-0.14096832,-8.31604E-4,12.87993814,77.64241919,6.49
152281959544,-0.4675583,-0.6710083,10.51608,-0.028320313,-0.10443878,0.08271942,12.87993814,77.64241919,6.49
152281959566,-0.963591,-0.5388031,9.13327,0.027018737,0.018579101,0.16029663,12.87999524,77.64240801,6.8
152281959586,-0.24454804,-1.1650054,9.874687,0.0049057007,0.1309723,0.13671875,12.87999524,77.64240801,6.8
152281959608,0.17371674,-0.86602175,9.647008,-0.061791994,0.11435394,0.013946533,12.87999524,77.64240801,6.8
152281959629,-0.35114747,-1.2687347,9.398155,0.02689209,0.0073394775,-0.050065614,12.87999524,77.64240801,6.8
152281959650,-0.3560547,-0.37453765,9.717715,-0.012686158,-0.0025573731,0.0077178953,12.87999524,77.64240801,6.8
152281959671,0.0634079,-0.31100768,9.444815,0.035198975,0.005259705,0.0049072267,12.8800576,77.64238655,7.06
152281959693,0.009091186,-1.6939408,10.193169,-0.003034973,0.0022094727,-0.011338806,12.8800576,77.64238655,7.06
152281959714,-0.6746567,-1.7506485,9.399111,0.038743593,-0.0036575317,-0.0128036495,12.8800576,77.64238655,7.06
152281959735,-0.8270813,-2.061957,9.367407,-0.033207703,-0.047869872,-0.032717895,12.8800576,77.64238655,7.06
152281959756,-0.04091797,-2.1053848,9.68338,-7.1563723E-4,-0.10944672,-0.0246521,12.8800576,77.64238655,7.06
152281959778,-0.5063232,-1.8463624,10.095665,-0.004136658,-0.13840027,0.021643067,12.8801181,77.64236938,6.82
152281959799,-0.71569365,-1.8083146,10.055942,0.0701416,-0.12227325,0.13390502,12.8801181,77.64236938,6.82
152281959820,-0.55681306,-2.5609772,8.965175,-0.09477539,-0.02955017,0.23323365,12.8801181,77.64236938,6.82
152281959841,-0.4777298,-1.571785,9.357473,-0.01855011,0.072697446,0.21320038,12.8801181,77.64236938,6.82
152281959863,-0.29694977,-1.2968476,10.136581,0.04875946,0.05583954,0.14551392,12.88016689,77.64234965,5.87
152281959884,-0.55453336,-1.4867188,9.19668,-0.07767334,0.084301755,0.13843079,12.88016689,77.64234965,5.87
152281959906,-0.48275453,-1.2828506,9.7642565,0.096896365,0.17262879,0.15162201,12.88016689,77.64234965,5.87
152281959926,-0.26919404,-1.0968094,10.715404,-0.050308228,0.14550781,-0.015496826,12.88016689,77.64234965,5.87
152281959948,-0.080877684,-0.63631135,9.488243,0.12304382,-8.43811E-4,-0.13643798,12.88016689,77.64234965,5.87
152281959969,-0.84562224,-0.19854279,10.52876,0.259758,-0.059114076,-0.08378601,12.88020865,77.64232623,5.35
152281959990,-0.29886475,-2.409993,9.571875,-0.6383225,9.918213E-4,-0.008898926,12.88020865,77.64232623,5.35
152281960011,-0.44566497,0.92907256,7.995004,0.40171814,-0.0057296753,-0.02489624,12.88020865,77.64232623,5.35
152281960033,-0.3414566,-1.1459824,11.681746,-0.028318787,-0.05275879,-0.08317566,12.88020865,77.64232623,5.35
152281960054,-0.37220612,0.22223358,8.3259325,-0.020988464,-0.048361205,-0.0035186769,12.88020865,77.64232623,5.35
152281960075,-0.2054245,-0.5760101,11.158315,0.062199403,-0.050437927,-0.017199706,12.88024972,77.64230332,5.19
152281960096,-0.26069793,-0.7140762,9.072134,-0.09648438,-0.06937561,0.020179749,12.88024972,77.64230332,5.19
152281960118,-0.4894516,-0.5169098,9.992653,0.05181427,-0.090753175,0.027748108,12.88024972,77.64230332,5.19
152281960139,-0.45045012,-1.0909469,9.607648,-0.06227417,-0.07218323,0.10862122,12.88024972,77.64230332,5.19
152281960161,-0.2209793,-1.2134613,9.761145,0.021640014,0.040686034,0.17801361,12.88024972,77.64230332,5.19
152281960181,-0.35952455,-1.491745,10.017896,0.015409851,0.1102005,0.15650788,12.88028744,77.64228739,5.37
152281960203,0.18520203,-1.2402588,9.468025,0.0044158935,0.10568237,0.03165741,12.88028744,77.64228739,5.37
152281960224,0.47318116,-1.7149932,9.79273,-0.0098754885,-0.06485443,-0.1393692,12.88028744,77.64228739,5.37
152281960245,-0.6338623,-1.5936813,9.314049,-0.028692627,-0.19240113,-0.06839295,12.88028744,77.64228739,5.37
152281960266,-0.45056915,-1.8099915,9.573787,-0.030883789,-0.21585235,0.076489255,12.88033116,77.64225397,5.46
152281960288,-0.6460663,-1.8816559,9.877434,0.02457428,-0.20131835,0.19266967,12.88033116,77.64225397,5.46
152281960309,-0.5779892,-1.7794831,10.436279,0.094329834,-0.16344604,0.29835206,12.88033116,77.64225397,5.46
152281960330,-0.50967103,-2.0157714,9.335821,0.036058046,-0.12215118,0.39694062,12.88033116,77.64225397,5.46
152281960351,-0.41671294,-1.8230317,10.019572,0.042900085,-0.061920166,0.45167845,12.88033116,77.64225397,5.46
152281960373,-0.13615265,-1.997229,9.622124,0.028971862,-0.05532379,0.4425125,12.88036679,77.64222246,4.69
152281960394,-0.3495926,-1.7163131,10.0490055,0.062321473,-0.033700563,0.45191804,12.88036679,77.64222246,4.69
152281960415,-0.338826,-1.4440079,10.223918,0.16482544,-0.03650818,0.45937806,12.88036679,77.64222246,4.69
152281960436,-0.09822998,-1.937648,9.778372,0.018345643,-0.015498352,0.4734314,12.88036679,77.64222246,4.69
152281960458,-0.24466857,-1.9041474,9.931757,0.13244934,-6.0272217E-4,0.47354585,12.88036679,77.64222246,4.69
152281960479,-0.20566253,-2.2337615,10.209917,0.050592043,0.012469483,0.47745818,12.88038175,77.64217652,3.99
152281960500,-0.41862488,-1.9540374,8.798154,0.044732668,0.010632324,0.45802766,12.88038175,77.64217652,3.99
152281960521,-0.3504303,-1.6880753,10.408526,0.12964019,0.043006897,0.4667099,12.88038175,77.64217652,3.99
152281960543,0.0061004637,-2.038147,9.501886,0.07502899,0.09358673,0.4580307,12.88038175,77.64217652,3.99
152281960564,-0.61363983,-2.2673783,10.088725,-0.010975647,0.13719635,0.4379944,12.88038175,77.64217652,3.99
152281960585,-0.52570343,-1.957866,9.043895,-0.00254364,0.1993866,0.39010316,12.8803754,77.64213926,3.77
152281960606,0.094874576,-2.0455658,10.014547,0.029089356,0.254364,0.25119323,12.8803754,77.64213926,3.77
152281960628,0.07692871,-1.9109681,9.7623415,-0.0168396,0.22040406,0.017245483,12.8803754,77.64213926,3.77
152281960649,-0.29420012,-2.1037078,9.803621,0.043510437,0.19841309,-0.137175,12.8803754,77.64213926,3.77
152281960670,0.45439452,-2.328154,9.912372,0.01858368,0.15919495,-0.3145706,12.88036298,77.64210919,3.33
152281960691,0.038641356,-2.178006,9.783638,0.055358887,0.09248505,-0.49844056,12.88036298,77.64210919,3.33
152281960713,-0.046064757,-1.811908,10.217339,0.07820435,0.0018402099,-0.57467043,12.88036298,77.64210919,3.33
152281960735,-0.414917,-2.0119445,9.640429,0.06598663,-0.053125,-0.5260483,12.88036298,77.64210919,3.33
152281960755,-0.4096527,-2.1361313,10.044218,0.07747345,-0.05569,-0.44761506,12.88036298,77.64210919,3.33
152281960776,-1.115297,-2.03013,9.697258,0.067330934,-0.016967773,-0.26740876,12.88036356,77.64208026,2.64
152281960798,-0.75756836,-1.9925629,9.61279,0.031289674,0.153331,-0.05470886,12.88036356,77.64208026,2.64
152281960819,0.72035825,-1.997351,9.8183365,-0.0027923584,0.24679108,-0.30234832,12.88036356,77.64208026,2.64
152281960840,0.462413,-2.106221,10.649122,0.09372254,0.15601654,-0.66678923,12.88036356,77.64208026,2.64
152281960861,-0.3710068,-2.1132827,9.60334,0.24167022,0.0648758,-0.9110199,12.88036356,77.64208026,2.64
152281960883,-0.21021119,-2.250386,10.090398,0.20575103,0.043251038,-0.87827605,12.88037626,77.64205841,2.14
152281960904,-0.30448762,-2.6083572,10.201185,0.16873474,0.015522766,-0.8816925,12.88037626,77.64205841,2.14
152281960925,-0.64594424,-2.200859,9.720825,0.16629028,-0.03516693,-0.8577484,12.88037626,77.64205841,2.14
152281960946,-0.65419924,-1.9655243,9.885333,0.18730164,-0.032362364,-0.77406156,12.88037626,77.64205841,2.14
152281960968,-0.55788726,-1.995195,9.6423435,0.1237793,0.02199707,-0.6141388,12.88039007,77.64205811,1.46
152281960989,-0.41335908,-1.6915451,9.7903385,0.124874875,0.07465057,-0.5971573,12.88039007,77.64205811,1.46
152281961010,-0.18137512,-1.3152726,9.997797,0.14576873,0.075871274,-0.7045471,12.88039007,77.64205811,1.46
152281961031,-0.41120607,-1.3037888,10.049121,0.19439086,0.07208252,-0.7718628,12.88039007,77.64205811,1.46
152281961053,-0.30951232,-1.0721664,10.075444,0.16165009,0.010025024,-0.85982513,12.88039007,77.64205811,1.46
152281961074,-0.20363006,-1.317427,9.817258,0.2242035,-0.033088684,-0.920047,12.88040477,77.6420631,1.38
152281961095,-0.4528412,-0.8137375,10.383757,0.16470489,-0.0657074,-0.9161469,12.88040477,77.6420631,1.38
152281961116,-0.70385134,-0.5422729,9.859133,0.17179413,-0.14401856,-0.8509048,12.88040477,77.6420631,1.38
152281961138,-1.9572113,0.08093719,9.820608,0.13171387,-0.14988557,-0.56807864,12.88040477,77.6420631,1.38
152281961159,-0.53934324,-0.08739624,9.856381,0.050715636,-0.058377076,-0.20130768,12.88040477,77.6420631,1.38
152281961180,-0.3956558,0.2399414,9.264757,0.042408753,-0.025154114,-0.19520417,12.8804075,77.64208307,1.65
152281961201,-0.45140687,0.77677,10.637756,-0.006578064,-0.048480224,-0.18799743,12.8804075,77.64208307,1.65
152281961223,-0.39146727,0.15032959,9.515402,-0.010610962,-0.09564056,-0.18409118,12.8804075,77.64208307,1.65
152281961244,-0.7667801,0.5279175,10.202143,1.6784668E-5,-0.1349762,-0.12459107,12.8804075,77.64208307,1.65
152281961266,-0.46744078,0.20967102,9.301005,0.005761719,-0.12044068,0.03288269,12.8804075,77.64208307,1.65
152281961286,-0.3530609,0.42382964,9.879707,0.0036834716,-0.11018066,0.13085632,12.88041224,77.64210273,2.12
152281961308,-0.36287385,-0.5088943,9.735544,-0.016470337,-0.105659485,0.18644103,12.88041224,77.64210273,2.12
152281961329,-0.5379074,0.83013,10.665034,0.015896607,-0.091731265,0.29053345,12.88041224,77.64210273,2.12
152281961350,-0.8063812,0.64923096,10.047208,0.038743593,-0.07536163,0.32547912,12.88041224,77.64210273,2.12
152281961371,-0.4975891,0.32811585,10.440828,0.02493744,-0.060943604,0.37177888,12.88041925,77.64212827,2.82
152281961393,-0.17611237,-0.14793396,9.265834,0.038378906,-0.052272033,0.40903777,12.88041925,77.64212827,2.82
152281961414,-0.14452973,-0.7750946,10.408165,0.05780182,-0.046287537,0.41905975,12.88041925,77.64212827,2.82
152281961435,-0.5352753,0.11982117,9.931996,0.037158202,-0.012211609,0.48161164,12.88041925,77.64212827,2.82
152281961456,-0.23880462,-0.9202194,10.035723,0.030558776,0.03030548,0.500058,12.88041925,77.64212827,2.82
152281961477,-0.3128647,-0.36388856,9.465993,0.023597717,0.07843933,0.49431914,12.88043729,77.64215331,3.35
152281961499,-0.27708894,-0.64971006,10.242462,0.046928406,0.13647003,0.4481369,12.88043729,77.64215331,3.35
152281961520,0.17957917,-0.304068,9.851358,0.045585632,0.14721985,0.32034606,12.88043729,77.64215331,3.35
152281961541,0.18831329,-0.19890289,10.417257,0.04302063,0.08430328,0.13916168,12.88043729,77.64215331,3.35
152281961563,0.05670929,-0.017169189,10.657618,0.003076172,-0.012446594,0.07563324,12.88043729,77.64215331,3.35
152281961584,-0.14823762,0.1918457,8.911814,0.04814911,-0.07010803,0.12608948,12.88046618,77.64217082,3.73
152281961605,-0.5090744,-1.0226319,9.637439,0.02090912,-0.057037354,0.22969513,12.88046618,77.64217082,3.73
152281961626,-0.69583285,-0.10893402,10.3424835,-0.0059646606,-0.017575074,0.27550507,12.88046618,77.64217082,3.73
152281961648,0.2233673,-0.5070984,9.623919,-0.0016952514,-0.019656371,0.2463028,12.88046618,77.64217082,3.73
152281961669,-0.16690063,-1.1575867,9.483103,-0.0014511108,-0.07890014,0.21783753,12.88050072,77.64218204,3.92
152281961690,-0.080281064,-1.2896698,9.60334,-0.056170654,-0.17785797,0.18571015,12.88050072,77.64218204,3.92
152281961711,-1.1888764,-1.4315643,10.259691,0.022373963,-0.20254211,0.38570863,12.88050072,77.64218204,3.92
152281961733,-1.5220764,-1.6073196,9.992892,0.116931155,-0.02686615,0.7225357,12.88050072,77.64218204,3.92
152281961754,-0.4752167,-1.4125427,9.659334,0.14576569,0.27831268,0.9092148,12.88050072,77.64218204,3.92
152281961775,1.3375885,0.18550721,8.580887,0.10606537,0.3991394,0.4794174,12.88053463,77.64218264,3.73
152281961796,0.80709684,-0.2930603,12.786272,-0.19751588,0.28026885,-0.05067749,12.88053463,77.64218264,3.73
152281961817,0.359639,0.8498718,9.25291,0.21748352,-0.033099364,-0.18518524,12.88053463,77.64218264,3.73
152281961839,-1.1453247,0.29055023,11.391853,0.007841492,-0.04763336,-0.042980958,12.88053463,77.64218264,3.73
152281961860,-0.5984497,0.6651443,8.736659,-0.090257265,0.011003112,0.11204071,12.88053463,77.64218264,3.73
152281961881,-0.11557617,-0.078546144,10.331476,0.06171112,0.022857666,0.03629761,12.88056598,77.64217232,3.68
152281961902,-0.31525573,0.27212372,9.763899,-0.05238495,-0.029066468,-0.0068206787,12.88056598,77.64217232,3.68
152281961924,-0.3060425,-0.23694763,9.695343,0.043510437,-0.07096863,0.0049072267,12.88056598,77.64217232,3.68
152281961945,-0.54341125,0.10594177,10.167328,-0.047254942,-0.052153014,0.0866272,12.88056598,77.64217232,3.68
152281961966,-0.55250245,-0.16959076,9.425792,0.034831237,0.032621764,0.13097839,12.88060142,77.64215686,4.63
152281961987,0.34360808,-0.24891357,11.094786,0.02091217,0.042396545,0.04497528,12.88060142,77.64215686,4.63
152281962009,-0.17635497,-0.5438293,9.81355,-0.008042907,-0.042375185,-0.0041305544,12.88060142,77.64215686,4.63
152281962030,-0.08123779,-0.5932404,9.745232,-0.07767181,-0.12215118,0.008328247,12.88060142,77.64215686,4.63
152281962051,-0.09726868,-1.7650055,9.7633,0.014675903,-0.16686706,0.075509645,12.88060142,77.64215686,4.63
152281962072,-0.6653274,-1.6373489,9.848844,-8.346558E-4,-0.124716185,0.18925324,12.88065507,77.64213029,5.53
152281962094,-0.95186615,-0.99822235,9.882222,0.005276489,-0.0054885866,0.28357238,12.88065507,77.64213029,5.53
152281962115,-0.24646302,-1.6111495,9.526532,0.041311644,0.14172211,0.3001892,12.88065507,77.64213029,5.53
152281962136,0.033618163,-1.5192642,9.571754,-0.06533203,0.20463714,0.1910843,12.88065507,77.64213029,5.53
152281962157,0.1567276,-1.5815964,9.594966,0.06378784,0.12840423,0.021640014,12.88065507,77.64213029,5.53
152281962179,-0.523909,-1.6591232,9.767369,-0.01720276,0.04728241,-0.017694091,12.88069704,77.64210447,5.23
152281962200,-0.20769958,-1.53685,9.047127,-0.06606903,0.07012787,0.04801941,12.88069704,77.64210447,5.23
152281962221,-0.57212526,-1.8176483,9.871816,0.008082581,0.08784485,-0.0011978149,12.88069704,77.64210447,5.23
152281962243,-0.42712098,-1.9125229,10.091715,0.0134536745,0.07123108,-0.049822997,12.88069704,77.64210447,5.23
152281962264,-0.48801726,-1.4082352,9.658134,0.067819215,0.070007324,-0.041636657,12.88073714,77.6420685,5.37
152281962285,-0.55956113,-1.4795395,10.716242,-0.017329406,0.07379608,-0.1085846,12.88073714,77.6420685,5.37
152281962306,0.22839355,-1.5187851,9.830658,0.050106812,0.023097228,-0.17529602,12.88073714,77.6420685,5.37
152281962328,-0.20506592,-1.921376,9.635881,0.3493088,-0.096011356,-0.2445633,12.88073714,77.6420685,5.37
152281962349,-0.46468657,-3.2588456,10.347865,-0.7745392,-0.2005951,-0.06240692,12.88073714,77.6420685,5.37
152281962370,-0.9951798,0.5133194,5.6405854,0.510939,-0.058633424,-0.03711853,12.88077805,77.64204962,4.7
152281962391,-0.18149567,-2.0000992,12.752531,-0.036993407,-0.07243042,0.017735291,12.88077805,77.64204962,4.7
152281962412,-0.704805,0.33074647,8.538414,-0.07132111,-0.048609924,0.08332825,12.88077805,77.64204962,4.7
152281962434,-0.8450287,0.059643555,10.7960415,0.05707855,0.018338013,0.096524045,12.88077805,77.64204962,4.7
152281962455,-0.36514586,-0.65210265,9.256018,-0.032234192,0.105436705,0.12779999,12.88077805,77.64204962,4.7
152281962476,-0.6145981,-0.4343567,10.146509,0.0022201538,0.19046631,0.040701292,12.88081535,77.64204025,4.63
152281962498,-0.1927414,-0.86602175,9.780291,-0.0052368166,0.19731292,-0.055929564,12.88081535,77.64204025,4.63
152281962519,-0.06987305,-0.13441773,10.255621,0.08700104,0.10103913,-0.23381194,12.88081535,77.64204025,4.63
152281962540,-0.36263275,-0.13992004,10.428624,0.07160644,-0.028451538,-0.2711975,12.88081535,77.64204025,4.63
152281962561,-0.46564788,-0.20345001,9.638036,0.075395204,-0.12129517,-0.2087677,12.88081535,77.64204025,4.63
152281962583,-0.46133575,-0.41712648,9.698575,-0.016960144,-0.18152924,-0.12117157,12.88084658,77.6420192,4.72
152281962604,-0.7240677,-0.23611145,9.38679,-0.009996032,-0.1734604,-0.011584473,12.88084658,77.6420192,4.72
152281962625,-0.8221756,-0.29270324,9.901604,-0.028443908,-0.09307556,0.07159881,12.88084658,77.6420192,4.72
152281962646,-0.6,-0.11575012,9.71628,0.028727721,-0.018069457,0.08748169,12.88084658,77.6420192,4.72
152281962667,-0.24371186,-0.425502,10.195082,-0.014271545,0.030430604,0.07477417,12.88090362,77.64198925,5.75
152281962689,-0.007896423,-0.48412627,9.454506,-0.02771454,0.015400696,0.034098815,12.88090362,77.64198925,5.75
152281962710,0.2641632,0.13645324,10.354086,0.034466553,-0.08244781,-0.041145325,12.88090362,77.64198925,5.75
152281962731,-0.25842285,-0.055093385,10.292353,-0.026365662,-0.14157562,0.035687257,12.88090362,77.64198925,5.75
152281962753,0.018423462,-0.033319093,10.120069,-0.008410645,-0.11079101,0.12230225,12.88090362,77.64198925,5.75
152281962774,-0.72502744,-0.6962509,9.561346,0.018707275,-0.029309083,0.16921692,12.88095408,77.64196561,6.34
152281962795,-0.07573547,-0.73800504,10.003778,-0.01611023,0.057055663,0.18253174,12.88095408,77.64196561,6.34
152281962816,-0.9314087,-0.87918246,9.52988,-5.966186E-4,0.13304749,0.16225128,12.88095408,77.64196561,6.34
152281962837,0.598201,-1.8926605,9.795244,-0.0300354,0.15259552,0.076611325,12.88095408,77.64196561,6.34
152281962859,-0.6496536,-1.3037903,9.633487,-0.0078018187,0.08772125,-0.016714478,12.88095408,77.64196561,6.34
152281962880,0.5790604,-1.2287766,9.9313965,0.03336792,0.005014038,-0.037361145,12.88100692,77.64193301,6.73
152281962901,-1.0429138,-2.432962,9.154086,-0.028933715,-0.029302979,-0.0015655517,12.88100692,77.64193301,6.73
152281962923,-0.63661194,-2.6338394,9.724653,-0.015255737,-0.020631408,0.02946167,12.88100692,77.64193301,6.73
152281962944,-0.610051,-2.4543762,10.045535,0.041311644,0.01149292,0.03751526,12.88100692,77.64193301,6.73
152281962965,-0.2718277,-2.7484558,9.875883,-0.024658203,0.03690033,0.03336487,12.88106011,77.64189942,6.62
152281962986,-0.10385132,-2.745584,9.216664,0.013940429,0.02065735,-0.004620361,12.88106011,77.64189942,6.62
152281963007,-0.19944306,-2.6435304,10.299051,0.006611633,-0.050679017,-0.063259885,12.88106011,77.64189942,6.62
152281963029,-0.7587646,-2.4463592,9.392174,-0.025878906,-0.069862366,-0.0014450073,12.88106011,77.64189942,6.62
152281963050,-0.4358551,-1.4639877,9.675722,0.017608643,0.031404115,0.14331666,12.88106011,77.64189942,6.62
152281963071,-0.0046676635,-1.5659225,10.294627,0.006980896,0.04068909,0.0332489,12.88110138,77.64187515,5.33
152281963092,-0.47904664,-1.7256424,11.411119,-0.37553254,-0.0235672,-0.026977539,12.88110138,77.64187515,5.33
152281963114,-0.5632721,0.14315338,4.1779723,0.46537322,-0.052645873,-0.0033996582,12.88110138,77.64187515,5.33
152281963135,0.45451507,-1.8756714,11.388626,-0.26801604,-0.03578186,0.002708435,12.88110138,77.64187515,5.33
152281963156,-0.5580063,0.27894288,7.2215223,0.04424896,-0.069862366,-0.0095092775,12.88110138,77.64187515,5.33
152281963178,-0.64725953,-0.3985855,11.456703,0.061590575,-0.10431366,0.037275694,12.88113709,77.6418498,4.79
152281963199,-0.27661133,0.16695862,10.0756855,-0.075108334,-0.06424408,0.16286163,12.88113709,77.6418498,4.79
152281963220,-0.87936246,-0.8812164,9.500569,0.0873703,0.0443573,0.2369049,12.88113709,77.6418498,4.79
152281963241,0.071064755,-1.0544571,10.122943,-0.046643067,0.11557617,0.18521729,12.88113709,77.6418498,4.79
152281963263,-0.28690186,-0.49334106,9.591136,0.04925232,0.18203735,0.11582641,12.88113709,77.6418498,4.79
152281963283,-0.293602,-0.52863467,9.960588,-0.0740097,0.1698227,-0.033084106,12.88116173,77.64182829,4.33
152281963305,-0.08841248,-1.0132996,8.635323,-0.017811585,0.10335998,-0.12471314,12.88116173,77.64182829,4.33
152281963326,0.13100585,-1.4093125,9.750139,-0.011711121,0.019070435,-0.16978912,12.88116173,77.64182829,4.33
152281963347,-0.66915435,-1.7332993,10.098773,0.03568878,-0.076704405,-0.18152313,12.88116173,77.64182829,4.33
152281963368,-0.9393036,-1.9878967,9.469464,-0.0018157959,-0.023927307,-0.009877014,12.88119655,77.64180089,4.83
152281963390,-0.3119049,-1.843251,9.731596,0.009791565,0.09004364,0.031167602,12.88119655,77.64180089,4.83
152281963411,0.5844467,-1.7347351,10.521345,0.12023468,0.0012313842,-0.25287476,12.88119655,77.64180089,4.83
152281963433,-0.38751832,-1.2857239,9.754209,0.31143188,-0.21842346,-0.23979798,12.88119655,77.64180089,4.83
152281963453,-1.423851,-4.918149,5.6090026,-0.4346634,-0.00914917,-0.0391922,12.88119655,77.64180089,4.83
152281963475,-0.29946595,1.2000611,10.886851,-0.34413147,-0.0067077638,0.07099304,12.88122772,77.64178154,4.41
152281963496,0.047016907,-2.878505,11.516879,0.58999175,0.05962677,0.058171082,12.88122772,77.64178154,4.41
152281963517,0.34468383,-1.7313858,12.08051,-0.07021942,-0.0028030395,-0.093070984,12.88122772,77.64178154,4.41
152281963538,-0.3455246,-1.07061,8.7261305,0.075646974,-0.05483856,-0.0582489,12.88122772,77.64178154,4.41
152281963560,-0.5851685,-0.56918794,10.903601,-0.014393616,-0.12814179,-0.057273865,12.88122772,77.64178154,4.41
152281963581,-0.81212616,-0.4057602,9.06017,-0.018551636,-0.12092743,0.04363098,12.88126381,77.6417597,4.38
152281963602,-0.37902373,-0.4383026,10.807526,0.104473874,-0.058137514,0.1358612,12.88126381,77.6417597,4.38
152281963623,-0.44877777,-0.34773865,9.151217,-0.1454773,-0.01708374,0.17862244,12.88126381,77.6417597,4.38
152281963645,-0.8055466,0.06382904,10.442862,0.043266296,0.08283844,0.17239228,12.88126381,77.6417597,4.38
152281963666,-0.111628726,-0.9814743,10.534146,-0.020382691,0.12913513,0.11399384,12.88130148,77.64173335,4.95
152281963688,0.07812653,-0.6838104,9.743441,0.06708679,0.10201721,0.021641541,12.88130148,77.64173335,4.95
152281963708,-0.48981324,-2.3794816,10.707985,-0.15989228,0.029696655,-0.090625,12.88130148,77.64173335,4.95
152281963730,-1.0414779,-1.3447052,8.337416,0.057073973,0.016618347,0.007229614,12.88130148,77.64173335,4.95
152281963719,0.08721618,-1.8310486,11.464479,-0.057142638,0.021139527,-0.026731873,12.88130148,77.64173335,4.95
152281963740,-0.72658235,-1.5912842,9.318357,0.03801117,-0.011956787,-0.0128067015,12.8813336,77.64170244,4.94
152281963761,-0.67333984,-2.2661834,10.853468,0.14918518,0.040567018,0.045462035,12.8813336,77.64170244,4.94
152281963783,-0.38321227,-1.9973481,8.970677,-0.20472717,0.1309723,0.05242462,12.8813336,77.64170244,4.94
152281963804,0.4661209,-1.4595627,10.429342,0.04009247,0.11289215,-0.13815156,12.8813336,77.64170244,4.94
152281963825,-0.34707794,-0.74470675,10.776179,0.11864319,-0.07157745,-0.30296326,12.8813336,77.64170244,4.94
152281963846,-1.3810151,1.218605,7.9762206,0.27624664,-0.15330353,-0.13241272,12.88136185,77.6416815,4.47
152281963868,-0.35174713,-0.8167297,10.200829,-0.22306061,-0.021002198,-0.020626832,12.88136185,77.6416815,4.47
152281963889,-0.8327042,0.5533997,8.402021,-0.018301392,-0.023446655,0.034222413,12.88136185,77.6416815,4.47
152281963910,-0.4187439,-0.47814482,10.648404,0.012361145,0.002456665,0.035076905,12.88136185,77.6416815,4.47
152281963932,-0.5708084,0.096012875,9.09989,-0.063504025,0.044966124,0.043624878,12.88136185,77.6416815,4.47
152281963952,-0.37113038,-0.5541214,9.853869,0.013700867,0.09749603,0.004295349,12.881402,77.64165617,4.59
152281963974,-0.2924057,-0.100796506,9.736499,-0.018423462,0.07917328,-0.06704712,12.881402,77.64165617,4.59
152281963995,0.041752625,-0.7826294,9.953769,0.05426178,-0.01892395,-0.16136017,12.881402,77.64165617,4.59
152281964016,-0.44566345,-1.0561326,9.713649,-0.050186157,-0.14414215,-0.14939117,12.881402,77.64165617,4.59
152281964037,-0.7727631,-0.7125198,9.304237,0.02420349,-0.18824616,-0.020259093,12.88144402,77.6416278,5.28
152281964059,-0.7878372,-1.426419,10.103201,-0.044317625,-0.09637146,0.13415222,12.88144402,77.6416278,5.28
152281964080,-0.31453857,-1.3097718,9.63325,0.008692932,-0.017210389,0.12266846,12.88144402,77.6416278,5.28
152281964101,-0.53958285,-1.4965317,9.853987,-0.008534241,-0.01305542,0.08394165,12.88144402,77.6416278,5.28
152281964122,-0.76857454,-0.9771698,9.93295,0.0024597168,-0.015864562,0.09249268,12.88144402,77.6416278,5.28
152281964144,-0.70146024,-0.723172,9.145953,0.017976379,0.053884886,0.15565643,12.88148819,77.64157833,5.42
152281964165,-0.4838318,-0.07148437,10.340327,0.013818359,0.14233398,0.13562164,12.88148819,77.64157833,5.42
152281964186,-0.52534485,-0.48496398,10.40111,-0.0023025512,0.19535522,0.041793823,12.88148819,77.64157833,5.42
152281964208,-0.40367126,-0.86470795,8.414824,0.20820007,0.13232116,-0.13888398,12.88148819,77.64157833,5.42
152281964229,-0.011129761,-0.46929017,10.005094,-0.4823059,0.062069703,-0.15916443,12.88148819,77.64157833,5.42
152281964250,-0.015194702,0.20584412,9.501165,0.45009613,-0.049711607,-0.2047348,12.8815249,77.64155736,5.43
152281964271,-0.5111084,0.020518493,10.986392,-0.09856262,-0.25764617,-0.14988098,12.8815249,77.64155736,5.43
152281964292,-1.2818375,0.12843475,8.623479,0.05169525,-0.20791931,0.01822052,12.8815249,77.64155736,5.43
152281964314,-0.5495132,-0.6110657,11.131635,-0.08561096,-0.091487125,0.13268586,12.8815249,77.64155736,5.43
152281964335,-0.25076905,-1.4922225,9.252312,0.0306839,0.11289062,0.18070069,12.8815828,77.64152251,6.2
152281964356,-0.21475983,-0.9853058,10.226669,-0.010362243,0.12595978,0.027996827,12.8815828,77.64152251,6.2
152281964377,-0.43621215,-1.1115265,8.281427,-0.05886383,0.0147918705,-0.057028197,12.8815828,77.64152251,6.2
152281964399,-1.1650665,-1.4610001,10.431134,0.083581544,-0.029548645,-0.016346741,12.8815828,77.64152251,6.2
152281964420,-1.0470978,-1.736531,8.766928,-0.013531494,0.04875336,0.07416992,12.8815828,77.64152251,6.2
152281964441,0.058621217,-1.2269776,9.941686,0.005757141,0.13047943,0.041670226,12.88162521,77.64149468,6.04
152281964462,-0.15828705,-1.6138977,10.816859,-0.018545533,0.05229492,-0.12214508,12.88162521,77.64149468,6.04
152281964484,-0.45786896,-1.1097275,9.484775,0.020664979,-0.065711975,-0.10846253,12.88162521,77.64149468,6.04
152281964505,-0.7797028,-1.8521073,9.985832,-0.10821533,-0.0828125,-0.037483215,12.88162521,77.64149468,6.04
152281964526,-0.15900573,-1.2801025,9.758156,0.14197998,-0.041525267,0.025917053,12.88162521,77.64149468,6.04
152281964547,-0.61890566,-1.7745758,9.7534895,-0.09208985,0.0074569704,0.018591309,12.88167861,77.64146503,6.24
152281964569,-0.20638427,-1.2603607,9.629662,0.010035706,0.0015975952,-0.016226197,12.88167861,77.64146503,6.24
152281964590,-0.7042099,-2.1809983,9.936661,0.020303344,-0.001826477,-0.015985107,12.88167861,77.64146503,6.24
152281964611,-0.36921388,-1.4428116,10.201904,-0.09160614,0.06622009,0.027627563,12.88167861,77.64146503,6.24
152281964632,-0.14118043,-1.9244874,9.473889,0.14356537,0.02370758,-0.09637146,12.88173542,77.64144158,5.95
152281964654,-0.48610535,-1.2493515,10.305513,-0.0609375,-0.08904572,-0.11139526,12.88173542,77.64144158,5.95
152281964675,-0.5953369,-1.6586441,9.560747,0.022616576,-0.10798035,-0.02086792,12.88173542,77.64144158,5.95
152281964696,-0.67106783,-1.6781464,9.853152,-0.020750428,-0.06668701,0.044607542,12.88173542,77.64144158,5.95
152281964718,-0.68698275,-1.3711456,9.541725,0.035446167,0.00599823,0.102630615,12.88173542,77.64144158,5.95
152281964739,-0.47641295,-1.3321441,10.10906,-0.004740906,0.05608063,0.06781006,12.88178324,77.64141707,5.85
152281964760,-0.25065002,-1.1331818,9.305075,0.015653992,0.038121033,-0.0032730103,12.88178324,77.64141707,5.85
152281964781,0.028352356,-1.2208786,9.843579,-0.016717529,0.0013519287,-0.028686523,12.88178324,77.64141707,5.85
152281964802,-0.38751832,-0.84508514,9.554407,0.011621093,-0.015867615,-0.015611267,12.88178324,77.64141707,5.85
152281964824,-0.19082794,-1.0280182,10.282422,-0.023435974,-0.036024474,-0.02758484,12.88178324,77.64141707,5.85
152281964845,-0.37854463,-0.8333618,9.79393,0.054626465,-0.091610715,-0.00572052,12.88182091,77.64139933,5.55
152281964866,-0.050727844,-1.3280761,9.988342,-0.033569336,-0.11689911,0.027874757,12.88182091,77.64139933,5.55
152281964887,-1.2406814,-0.8280945,9.662325,0.008082581,-0.03272705,0.16408387,12.88182091,77.64139933,5.55
152281964909,-0.38297424,-1.2455246,9.760666,-0.0059677125,0.0667099,0.17776641,12.88182091,77.64139933,5.55
152281964930,0.16187438,-0.92823637,9.142484,-0.036140442,0.06132965,0.0740448,12.88182091,77.64139933,5.55
152281964951,-0.1803009,-1.0578079,9.910337,0.0352005,-0.0058517456,0.001979065,12.88186681,77.64138048,5.44
152281964972,-0.9239899,-1.0982437,10.045652,-0.014149475,-0.022093201,0.053396605,12.88186681,77.64138048,5.44
152281964994,-0.41718903,-1.0293319,9.65658,-0.01525116,0.052049257,0.12364654,12.88186681,77.64138048,5.44
152281965015,-0.1828125,-1.1335404,9.932831,-0.025387574,0.14489898,0.103730775,12.88186681,77.64138048,5.44
152281965036,-0.15661316,-1.2743591,9.898257,0.017118836,0.104214475,-0.041639708,12.88191904,77.64133382,5.67
152281965058,-0.36909485,-1.3884933,9.700849,0.002456665,0.014300537,-0.075354,12.88191904,77.64133382,5.67
152281965079,-0.32315063,-1.699324,9.671295,0.0227417,-0.0042678835,-0.0484787,12.88191904,77.64133382,5.67
152281965100,-0.68638456,-2.171187,9.61626,-0.024778748,0.007092285,-0.010113525,12.88191904,77.64133382,5.67
152281965121,-0.525943,-2.0740402,9.870738,-0.022457886,0.035308838,-0.025509644,12.88191904,77.64133382,5.67
152281965142,-0.46983185,-2.2013383,9.454987,0.033732604,0.032380678,-0.05861664,12.88196151,77.64130327,5.52
152281965164,-0.14117737,-1.1678741,10.409601,0.013946533,-0.010372925,-0.10809784,12.88196151,77.64130327,5.52
152281965185,-0.51098937,-1.3461411,9.978175,0.037524413,-0.06595459,-0.09856872,12.88196151,77.64130327,5.52
152281965206,-0.8385666,-1.0998032,12.915486,0.35003814,-0.07841339,-0.049212646,12.88196151,77.64130327,5.52
152281965228,-1.2628129,-4.5215364,4.840665,-0.29954225,-0.15343627,0.039231874,12.88196151,77.64130327,5.52
152281965249,0.05622711,-0.85369873,12.084577,-0.49855652,0.040574647,0.06256561,12.88199775,77.64127933,4.91
152281965270,-1.3445266,-1.9837112,12.576543,0.51840365,0.042523194,0.06257172,12.88199775,77.64127933,4.91
152281965291,-0.020581055,-1.518663,10.899414,-0.018052673,0.09481201,-0.041148376,12.88199775,77.64127933,4.91
152281965312,0.2867798,-0.6476776,9.685175,0.03251648,-0.058746338,-0.120436095,12.88199775,77.64127933,4.91
152281965334,-0.5121872,-1.3661209,10.776779,0.076626584,-0.1674759,-0.08524933,12.88203066,77.6412578,4.49
152281965355,-1.5391861,0.07770691,9.413348,-0.071688846,-0.12642518,0.08015747,12.88203066,77.6412578,4.49
152281965376,-1.1405365,-0.42394868,10.722463,0.091156006,0.10605011,0.24276276,12.88203066,77.6412578,4.49
152281965398,0.445903,-0.014894104,11.078035,-0.051164247,0.20281371,0.14245911,12.88203066,77.6412578,4.49
152281965419,0.57259977,-1.3935181,9.339653,0.033859253,0.12974854,-0.112249754,12.88203066,77.6412578,4.49
152281965440,-0.93416137,-0.55232394,10.562261,0.009182739,-0.01000824,-0.18470307,12.88206603,77.64123179,4.59
152281965461,-0.8560318,-0.084048465,9.357002,-0.025263976,-0.040052794,-0.08451843,12.88206603,77.64123179,4.59
152281965482,-0.84454805,-0.4598404,9.616023,0.00771637,-0.01733551,-0.026974488,12.88206603,77.64123179,4.59
152281965504,-0.03086853,-0.42813414,9.610041,0.046809386,-0.02564087,-0.06875916,12.88206603,77.64123179,4.59
152281965525,-0.38464814,-0.7429123,10.356481,-0.025999451,-0.0940506,-0.0627716,12.88206603,77.64123179,4.59
152281965546,-0.68853915,-0.59563446,9.523779,0.01077118,-0.0406662,0.0431427,12.88210892,77.64120823,4.94
152281965567,-0.5121826,-1.8830917,10.844853,-0.029542541,-0.006828308,0.028604126,12.88210892,77.64120823,4.94
152281965589,0.00382843,-0.98147583,8.983241,-0.016351318,-0.011349487,0.019451905,12.88210892,77.64120823,4.94
152281965610,-0.665683,-1.0099487,10.138733,0.0036804199,-0.003163147,0.03092804,12.88210892,77.64120823,4.94
152281965631,-0.80363005,-1.3737808,9.532392,0.02823944,0.06756592,0.07795105,12.88210892,77.64120823,4.94
152281965652,-0.5440094,-1.8008972,9.539929,-0.06228485,0.15883026,0.059140015,12.88214983,77.64117922,5.12
152281965674,-0.120600894,-1.3200607,9.829941,-0.014881897,0.23921967,-0.024407959,12.88214983,77.64117922,5.12
152281965695,0.47832337,-1.7714676,10.661206,0.088591,0.21429291,-0.20180511,12.88214983,77.64117922,5.12
152281965716,0.47401732,-1.7572281,9.715683,0.0134552,-0.009027099,-0.39018708,12.88214983,77.64117922,5.12
152281965737,-0.2644089,-1.7228912,10.092433,0.10984955,-0.298201,-0.42929536,12.8821945,77.64115895,5.2
152281965811,-1.3879592,-1.4581254,9.878873,0.009059143,-0.3870224,-0.11335297,12.8821945,77.64115895,5.2
152281965832,-1.473381,-1.1992233,9.727765,-0.024655152,-0.20584106,0.20464782,12.8821945,77.64115895,5.2
152281965853,-0.7671402,-1.4257019,9.92721,0.016996766,-0.022346497,0.26463166,12.8821945,77.64115895,5.2
152281965874,-0.26955566,-1.685083,9.77323,0.011987304,0.08796539,0.20587006,12.8821945,77.64115895,5.2
152281965896,-0.055514526,-1.4042861,9.786989,-0.02490387,0.09713135,0.07734223,12.88224121,77.64114575,5.32
152281965917,-0.03720703,-1.575853,9.86212,0.018096924,0.036657713,0.006135559,12.88224121,77.64114575,5.32
152281965938,-0.4383667,-1.5212967,9.823957,6.30188E-4,-4.7912597E-4,0.013092041,12.88224121,77.64114575,5.32
152281965959,-0.3488739,-1.226622,9.63313,-0.013668823,-0.006098938,0.04044647,12.88224121,77.64114575,5.32
152281965980,-0.45355988,-1.4259415,9.658613,-0.0029129027,-0.011106873,0.033363342,12.88224121,77.64114575,5.32
152281966002,-0.3615555,-1.315033,9.862124,-0.011224365,-0.027348328,0.026158143,12.8822803,77.6411189,4.82
152281966023,-0.62070006,-1.6798203,9.836398,2.593994E-4,-0.010372925,0.07477875,12.8822803,77.6411189,4.82
152281966044,-0.44219512,-1.407518,9.8697815,0.004664612,0.062312316,0.11936951,12.8822803,77.6411189,4.82
152281966065,-0.15373993,-1.1931213,10.154287,0.0018447876,0.09114075,0.050469972,12.8822803,77.6411189,4.82
152281966087,-0.15218353,-1.6411774,9.607524,-0.014518738,0.060110472,-0.030152893,12.88233452,77.64108962,4.87
152281966108,-0.19896546,-1.292546,9.994568,0.0038009644,0.05180664,-0.048843384,12.88233452,77.64108962,4.87
152281966129,-0.21918182,-1.2280563,9.409284,0.017852783,0.008197022,-0.09587707,12.88233452,77.64108962,4.87
152281966150,-0.20865326,-1.119661,10.074966,0.019441223,-0.08586731,-0.13998108,12.88233452,77.64108962,4.87
152281966172,-0.6361343,-1.1352112,10.090398,0.012846375,-0.12801667,-0.04737854,12.88233452,77.64108962,4.87
152281966193,-0.5769104,-1.378444,9.560509,-0.005847168,-0.06021118,0.08809662,12.88237026,77.64107588,4.52
152281966214,-0.50357056,-1.3420776,10.190061,-0.014523315,-0.008901978,0.10031281,12.88237026,77.64107588,4.52
152281966236,-0.4420746,-1.4724823,9.52007,-0.011711121,0.012588501,0.08882904,12.88237026,77.64107588,4.52
152281966257,-0.23401794,-1.2267395,10.121623,-0.020263672,0.02394867,0.07514648,12.88237026,77.64107588,4.52
152281966278,-0.10696106,-1.1419175,9.994687,0.019073486,-0.0019439697,0.011383057,12.88237026,77.64107588,4.52
152281966299,-0.7689346,-1.1140397,9.63983,0.024694825,-0.016105652,0.04082184,12.88240545,77.64104737,4.51
152281966309,-0.6867401,-1.6043274,9.950894,-0.020504761,0.061453246,0.13170776,12.88240545,77.64104737,4.51
152281966330,-0.29671174,-1.2330825,9.359035,0.0030700683,0.120219424,0.08455048,12.88240545,77.64104737,4.51
152281966351,-0.090090945,-0.8636276,10.115283,0.010153199,0.115940854,-0.03149414,12.88240545,77.64104737,4.51
152281966372,-0.09870605,-1.1026719,9.898733,0.017730713,0.039956667,-0.14144745,12.8824414,77.64102387,4.38
152281966393,-0.44135895,-0.71000516,9.973509,0.07539673,-0.036021423,-0.17210999,12.8824414,77.64102387,4.38
152281966415,-0.46588287,-1.1512467,7.949899,-0.026492309,-0.10016022,-0.11493683,12.8824414,77.64102387,4.38
152281966436,-0.35904846,-0.9497711,10.105113,-0.04653015,-0.096250914,-0.03504181,12.8824414,77.64102387,4.38
152281966457,-0.690448,-0.22079773,10.306948,0.09164429,-0.04824066,0.05254059,12.8824414,77.64102387,4.38
152281966478,-0.104925536,0.08883514,10.786829,-0.027952576,-0.01574707,0.042037964,12.88247655,77.64100568,4.23
152281966500,-0.25424042,-0.68656003,8.602661,-0.021852111,-0.061677553,-4.6844484E-4,12.88247655,77.64100568,4.23
152281966521,0.043190002,-0.8120651,11.535545,-0.05201874,-0.10639191,0.009921265,12.88247655,77.64100568,4.23
152281966542,-0.7390259,-1.3743759,9.190219,0.12939605,-0.13339385,0.066841125,12.88247655,77.64100568,4.23
152281966563,-0.9537781,-1.0511078,10.777857,-0.11847687,-0.08977661,0.17776641,12.88247655,77.64100568,4.23
152281966585,-0.59378207,-1.1749359,9.129442,0.067819215,0.031282045,0.27196655,12.88251222,77.64099358,4.36
152281966606,-0.55429685,-1.4843261,10.054148,-0.006944275,0.124617,0.21075745,12.88251222,77.64099358,4.36
152281966627,-0.65515596,-1.2138183,9.444455,0.019442748,0.2017105,0.18314667,12.88251222,77.64099358,4.36
152281966648,-0.24825744,-1.3858643,10.125094,0.030558776,0.22993469,0.030192565,12.88251222,77.64099358,4.36
152281966669,0.23808137,-1.2840455,9.523539,-0.0065826415,0.17751312,-0.10846253,12.88251222,77.64099358,4.36
152281966691,-0.21248475,-0.80536497,9.977341,0.033735655,0.069517516,-0.21255341,12.88255745,77.64096323,4.73
152281966713,0.058145143,-0.87822723,10.0540285,0.028970337,-0.075846866,-0.2606949,12.88255745,77.64096323,4.73
152281966733,-1.2369735,-0.13872223,10.211237,0.038743593,-0.16112213,-0.15721282,12.88255745,77.64096323,4.73
152281966754,-1.0018784,-0.75882417,10.137178,-0.0024322509,-0.1026062,0.007839966,12.88255745,77.64096323,4.73
152281966776,-0.9140625,-0.17569275,9.482982,0.0025802613,0.013690186,0.07514496,12.88259369,77.64093652,5.05
152281966797,-0.44267273,-0.49393767,9.972194,0.009301757,0.07696991,0.02091217,12.88259369,77.64093652,5.05
152281966818,-0.068675235,-0.5965912,10.008087,-0.0049942015,0.020288086,-0.078897096,12.88259369,77.64093652,5.05
152281966839,-0.20626374,-0.65126497,9.805174,0.01846161,-0.069006346,-0.09893341,12.88259369,77.64093652,5.05
152281966861,-0.47425994,-0.5179871,9.837118,-7.1563723E-4,-0.09881439,-0.027220154,12.88259369,77.64093652,5.05
152281966883,-0.44291228,-0.74099576,9.491,0.00856781,-0.10529022,0.012358094,12.88263483,77.64091579,5.17
152281966903,-0.41036987,-0.29162446,10.276202,0.0016067505,-0.080122374,0.05730591,12.88263483,77.64091579,5.17
152281966924,-0.79657286,-0.58043975,9.7298,-0.009507751,-0.013182068,0.10800781,12.88263483,77.64091579,5.17
152281966946,-0.8699112,-1.0574493,9.20577,-9.6588134E-4,0.05669098,0.10935364,12.88263483,77.64091579,5.17
152281966967,-0.17420045,-1.8797424,10.403616,-0.011343384,0.077093504,0.061955262,12.88263483,77.64091579,5.17
152281966988,-0.2218155,-1.138208,10.673172,-0.0030395507,0.09126587,0.031047057,12.88269026,77.64088919,6.2
152281967009,-1.2037064,-0.959581,9.162822,0.023716737,0.083444215,-0.0040115356,12.88269026,77.64088919,6.2
152281967031,-0.3857239,-1.6925018,10.314962,0.009794617,0.08747711,-0.018545533,12.88269026,77.64088919,6.2
152281967052,-0.26320952,-1.0941788,9.776579,-0.021846008,0.06866455,-0.06008301,12.88269026,77.64088919,6.2
152281967073,-0.10253601,-1.3413559,9.614227,-1.05285646E-4,0.017106628,-0.11005249,12.882748,77.64085461,6.4
152281967094,-0.27350006,-0.5498093,9.63636,0.023962403,-0.040905762,-0.114328004,12.882748,77.64085461,6.4
152281967116,-0.89838713,-0.31184235,9.106947,0.009666443,-0.062287904,-0.06851349,12.882748,77.64085461,6.4
152281967137,-0.369812,-1.0014572,9.971594,0.013941956,-0.058746338,-0.04664612,12.882748,77.64085461,6.4
152281967158,-0.31764832,-0.7719849,10.132512,-0.041027833,-0.07340393,-0.026977539,12.882748,77.64085461,6.4
152281967179,-0.29359895,-0.7762909,9.974347,0.06439972,-0.04310913,0.014071655,12.88280292,77.64082838,6.41
152281967201,-0.97567594,-0.88014066,9.527484,-0.061425783,0.0012344361,0.044236757,12.88280292,77.64082838,6.41
152281967222,-0.44865417,-0.26243287,9.271696,0.019691467,0.046182252,0.034466553,12.88280292,77.64082838,6.41
152281967243,-0.23401794,-1.2986435,9.994326,-0.013906861,0.03616638,-0.015490723,12.88280292,77.64082838,6.41
152281967265,-0.4305908,-0.188974,9.92541,0.0045410157,0.030548096,-0.01940155,12.88280292,77.64082838,6.41
152281967286,-0.4240097,-0.94546205,9.964894,0.020417785,0.0350708,-0.017326355,12.88285832,77.64079115,6.74
152281967307,-0.6354157,-0.6393005,9.390259,-0.0134185795,0.025047302,-0.032595824,12.88285832,77.64079115,6.74
152281967328,-0.6411575,-1.4599197,9.823118,-7.171631E-4,-0.0021911622,-0.05604706,12.88285832,77.64079115,6.74
152281967349,-0.37029114,-1.7438278,8.994008,-0.017451476,-0.0156234745,-0.047257997,12.88285832,77.64079115,6.74
152281967371,-0.31525725,-1.7816346,9.815579,0.005509949,-0.019165039,-0.036871336,12.88291337,77.64077019,6.74
152281967392,-0.95713043,-1.2592834,10.126772,2.6397704E-4,-0.0036499023,-0.020498658,12.88291337,77.64077019,6.74
152281967413,-0.14273223,-1.3913682,9.722743,0.025669862,0.021995544,-0.014517212,12.88291337,77.64077019,6.74
152281967434,-0.1931015,-1.3079758,10.185991,-0.017085265,0.069761656,-0.011218262,12.88291337,77.64077019,6.74
152281967456,-0.4223358,-1.3061829,9.763535,0.0044174194,0.061454773,-0.06802521,12.88291337,77.64077019,6.74
152281967477,-0.02644043,-1.168956,9.487767,-0.005241394,0.023582458,-0.09319153,12.88297585,77.64073761,7.37
152281967498,-0.16007996,-0.93612975,10.041944,0.019683838,-0.033337403,-0.10039826,12.88297585,77.64073761,7.37
152281967519,-0.19429779,-1.3159897,9.47999,0.0068557737,-0.08659973,-0.09441223,12.88297585,77.64073761,7.37
152281967541,-0.74105835,-0.9891342,9.63887,-1.0375977E-4,-0.08024597,-0.02551117,12.88297585,77.64073761,7.37
152281967563,-0.7324432,-1.8175262,10.338056,0.013948059,-0.03186798,0.008694458,12.88297585,77.64073761,7.37
152281967583,-0.655159,-0.5719452,9.493986,0.011871338,-7.293701E-4,0.011265564,12.88303692,77.64072627,7.0
152281967604,-0.4078598,-0.8199585,8.71034,-0.017086793,0.01600952,0.011138916,12.88303692,77.64072627,7.0
152281967626,0.07716522,-1.3143173,10.269383,0.010649109,0.047528077,-0.0018096924,12.88303692,77.64072627,7.0
152281967647,-0.43370208,-0.90741885,10.265078,-0.041636657,0.05986786,-0.0153686525,12.88303692,77.64072627,7.0
152281967668,-1.3573303,-1.4772689,9.907107,0.011988831,0.049726866,-0.035891723,12.88303692,77.64072627,7.0
152281967689,-0.66305083,-1.0550553,9.840109,-0.0038909912,0.07183838,-0.03528137,12.88309776,77.64068573,7.1
152281967711,0.12717743,-0.44739836,9.732431,0.0063690185,0.08222351,-0.058618166,12.88309776,77.64068573,7.1
152281967732,-0.05635376,-0.78047943,9.15935,0.009790039,0.08075409,-0.10577545,12.88309776,77.64068573,7.1
152281967753,0.21774444,-1.1367722,8.600865,0.009057617,-0.028816223,-0.17712554,12.88309776,77.64068573,7.1
152281967774,0.033976745,-1.5982254,9.358673,0.006246948,-0.16039124,-0.18958588,12.88316348,77.64066087,7.1
152281967796,-0.4704315,-1.7329407,9.333311,-0.016716003,-0.24176483,-0.09465637,12.88316348,77.64066087,7.1
152281967817,-1.1102722,-1.3664795,10.469421,0.02053833,-0.15965882,0.07697906,12.88316348,77.64066087,7.1
152281967838,-0.56698453,-1.4964126,9.829821,-0.029051209,0.023100281,0.16115113,12.88316348,77.64066087,7.1
152281967859,-0.7885559,-2.0152938,9.061846,-0.034916688,0.14098969,0.11399536,12.88316348,77.64066087,7.1
152281967881,0.23425445,-2.1363723,9.746794,0.025552368,0.09175567,-0.03760376,12.88322361,77.64064211,7.21
152281967902,0.09846649,-2.4963746,10.824397,-0.05031128,0.05217438,-0.02978363,12.88322361,77.64064211,7.21
152281967923,-0.5414963,-2.4074783,9.621167,0.09628449,0.072697446,-0.012924194,12.88322361,77.64064211,7.21
152281967944,0.13662568,-2.8277786,9.750498,-0.0014480591,0.08234558,-0.053488158,12.88322361,77.64064211,7.21
152281967966,-0.09320374,-2.5180283,9.487287,-0.014761353,0.034210205,-0.11762543,12.88322361,77.64064211,7.21
152281967988,-0.40474853,-2.7704697,9.463957,0.03288269,-0.06876068,-0.16490479,12.88328387,77.64062579,6.71
152281968008,-0.64127654,-2.3531585,9.329122,-0.016714478,-0.07609101,-0.063259885,12.88328387,77.64062579,6.71
152281968029,-0.6885376,-2.3568711,10.048407,0.010037231,-0.0153717045,0.001246643,12.88328387,77.64062579,6.71
152281968051,-0.3606003,-2.0062013,9.582402,0.04607544,0.01539917,-0.005722046,12.88328387,77.64062579,6.71
152281968072,-0.4029541,-1.5702301,10.391294,0.038623046,0.0515625,-0.017448425,12.88328387,77.64062579,6.71
152281968093,-0.36419067,-1.5705887,10.898578,0.17093506,0.083444215,-0.05630188,12.88332817,77.6406112,5.46
152281968114,0.070826724,-3.0742402,6.4299774,-0.2895233,0.06634979,-0.107730106,12.88332817,77.6406112,5.46
152281968136,0.4865799,-0.027217101,10.931,-0.19617614,0.06903076,-0.25054932,12.88332817,77.6406112,5.46
152281968157,0.026319886,-1.8665787,9.797038,0.34185332,-0.15673523,-0.2974655,12.88332817,77.6406112,5.46
152281968178,-0.5088364,0.003529358,11.69012,-0.05971527,-0.31848603,-0.24114227,12.88335991,77.64060223,3.82
152281968199,-1.9089981,-0.58235013,8.277715,0.06769867,-0.16723022,0.15052795,12.88335991,77.64060223,3.82
152281968221,-0.65695035,-0.8316864,9.633009,-0.0010818482,0.114479065,0.36945495,12.88335991,77.64060223,3.82
152281968242,0.0053833006,0.25824738,9.713887,0.04082184,0.23750763,0.18045807,12.88335991,77.64060223,3.82
152281968263,-0.041757204,-0.8406601,9.834009,-0.063259885,0.17727356,-0.064482115,12.88335991,77.64060223,3.82
152281968284,0.1616333,-0.27666777,9.407964,0.0168808,0.09859772,-0.13363342,12.88340662,77.64059546,4.5
152281968305,0.3083145,-0.90035707,10.372151,0.0661087,0.00599823,-0.21903077,12.88340662,77.64059546,4.5
152281968327,-0.27385712,-0.21948242,9.710897,0.03605499,-0.12214966,-0.23686981,12.88340662,77.64059546,4.5
152281968348,-0.59389955,-0.17389984,10.316042,0.027017212,-0.2681473,-0.17785645,12.88340662,77.64059546,4.5
152281968369,-1.1255844,-0.3099304,9.571635,-0.022212218,-0.26925048,0.02481537,12.88340662,77.64059546,4.5
152281968391,-0.79322207,-0.6605972,9.796082,0.029336547,-0.15110627,0.19377288,12.88345001,77.64059575,5.17
152281968412,-0.965744,-0.27008972,10.290438,-0.019282531,0.048509218,0.28369445,12.88345001,77.64059575,5.17
152281968433,-0.28079835,-0.5931198,9.818216,0.03361206,0.24398346,0.25046235,12.88345001,77.64059575,5.17
152281968454,0.3119034,-0.42430878,9.788783,-0.02111206,0.3319458,0.079055786,12.88345001,77.64059575,5.17
152281968476,0.5380249,-0.2498703,10.170438,0.033125304,0.18802337,-0.1835968,12.88349803,77.64059701,5.94
152281968497,-0.3633499,-0.87403715,9.613629,0.062445067,-0.08843689,-0.29074556,12.88349803,77.64059701,5.94
152281968518,-0.32207337,-1.008516,9.882581,-0.028688049,-0.24628143,-0.16233674,12.88349803,77.64059701,5.94
152281968539,-0.27409974,-0.79663086,10.037396,0.0044143675,-0.25251007,-8.3312986E-4,12.88349803,77.64059701,5.94
152281968561,-0.7794617,-1.2355942,9.6963,-1.083374E-4,-0.15648499,0.12779541,12.88349803,77.64059701,5.94
152281968582,-1.520282,-0.7804779,9.08936,-0.007676697,0.015034485,0.21906129,12.88355309,77.64059009,6.51
152281968603,0.08829498,-0.76504517,9.455223,0.016384888,0.1876587,0.19206086,12.88355309,77.64059009,6.51
152281968624,1.1519043,-1.5157944,10.428024,0.01687317,0.17592926,0.015896607,12.88355309,77.64059009,6.51
152281968646,0.65814364,-1.5872208,9.784834,-0.016474914,0.015036011,-0.11701508,12.88355309,77.64059009,6.51
152281968667,-0.21906586,-1.7178665,9.897177,-0.009631348,-0.07975616,-0.044812012,12.88355309,77.64059009,6.51
152281968688,-0.04522705,-1.5425918,10.225115,-0.00816803,-0.03504486,0.042037964,12.88361541,77.64059232,6.74
152281968710,0.077287294,-1.2616761,10.390816,0.14271393,0.012594605,0.046435546,12.88361541,77.64059232,6.74
152281968731,-0.10074005,-1.7045853,9.879114,-0.36673126,0.009414673,0.011991883,12.88361541,77.64059232,6.74
152281968752,-0.15876465,-1.6354355,9.735901,0.28993073,-0.01905365,-0.01048584,12.88361541,77.64059232,6.74
152281968773,-0.32255554,-3.6872802,10.822721,-0.08182983,-0.049464416,0.03568573,12.88367329,77.64058991,6.52
152281968794,-0.6447464,-2.9859421,8.455744,0.0011184693,0.029452514,0.084918216,12.88367329,77.64058991,6.52
152281968816,0.044503786,-3.2979674,9.954126,-0.022093201,0.037020873,6.362915E-4,12.88367329,77.64058991,6.52
152281968837,-0.48789674,-3.1899307,9.533948,0.023716737,0.0046554566,0.007843018,12.88367329,77.64058991,6.52
152281968858,-0.40594482,-3.3613753,9.885694,0.008082581,0.014912414,0.00332489,12.88367329,77.64058991,6.52
152281968879,-0.20255432,-2.9167907,9.753011,-0.031129455,0.014300537,0.014443969,12.8837161,77.64058296,4.99
152281968901,0.102171324,-2.5156357,9.9162035,-0.0066986084,0.002937317,-0.03112793,12.8837161,77.64058296,4.99
152281968922,-0.43143004,-1.4240265,10.456859,0.018222045,-0.02979126,-0.02648468,12.8837161,77.64058296,4.99
152281968943,-0.38859558,-2.0184066,12.009321,0.037654113,0.004408264,0.060609438,12.8837161,77.64058296,4.99
152281968964,-0.48586273,-1.076593,6.4402647,0.4366623,0.034458924,0.07807617,12.8837161,77.64058296,4.99
152281968985,-0.27302092,-3.702594,9.418734,-0.5101608,0.067201234,-0.029667664,12.88375065,77.64058113,3.78
152281969007,-0.20985413,-1.3382447,11.222203,-0.6005722,-0.014157104,-0.072180174,12.88375065,77.64058113,3.78
152281969028,-0.6933197,-0.6431335,7.959712,0.36298674,-0.053248595,-0.058494568,12.88375065,77.64058113,3.78
152281969049,-0.5258255,-0.8846863,12.06723,0.42994538,-0.07487335,5.126953E-4,12.88375065,77.64058113,3.78
152281969071,-0.5038101,-0.036071777,9.055145,-0.16905364,0.010395813,0.15993042,12.88376836,77.64058348,2.94
152281969092,-0.14560547,-0.384346,9.50954,0.116931155,0.04545288,0.11631165,12.88376836,77.64058348,2.94
152281969113,-0.62644196,-0.31376037,10.347509,-0.087934874,0.058403015,0.03984375,12.88376836,77.64058348,2.94
152281969134,-0.23138733,-0.53186494,9.179808,0.027383422,0.097372435,0.08235779,12.88376836,77.64058348,2.94
152281969155,-0.29420012,0.19196168,11.130916,-0.002545166,0.084301755,-0.079875186,12.88376836,77.64058348,2.94
152281969177,-0.42149812,0.38948974,9.797279,-0.006088257,0.046426393,-0.11811371,12.88379665,77.64057933,3.15
152281969198,-0.09116821,-0.0034072876,10.84653,0.057559203,0.005015564,-0.17492524,12.88379665,77.64057933,3.15
152281969219,-0.2682373,0.33433837,10.342244,0.01626587,-0.058013916,-0.16587982,12.88379665,77.64057933,3.15
152281969240,-0.7491943,-1.0338776,10.476721,-0.012440491,-0.04371948,-0.067416385,12.88379665,77.64057933,3.15
152281969262,-0.36514586,-0.84281003,9.339411,-0.033451844,-0.049461365,-0.06741333,12.88379665,77.64057933,3.15
152281969283,-0.46121675,-1.0762314,9.914167,0.026159668,-0.041886903,-0.02795105,12.88383551,77.6405723,3.83
152281969304,-0.46671906,-1.1305466,10.058815,-0.017201234,-0.028082276,-0.020133972,12.88383551,77.6405723,3.83
152281969325,-0.24777679,-1.0426102,9.787825,0.004292297,-0.015620423,-0.005107117,12.88383551,77.6405723,3.83
152281969347,-0.37615204,-1.2160919,9.9663315,0.018341064,-0.024176026,-0.016590882,12.88383551,77.6405723,3.83
152281969368,-0.26297456,-1.0928619,9.671774,0.01980896,-0.050559998,-0.011094665,12.88383551,77.6405723,3.83
152281969389,-0.24442902,-0.9709488,9.727763,-0.051161192,-0.076216124,-2.1972656E-4,12.88387181,77.64056959,4.13
152281969411,-0.28367156,-1.3092926,9.524977,0.01712494,-0.083302304,0.047413636,12.88387181,77.64056959,4.13
152281969432,-0.28917542,-1.3822724,9.691277,-0.014273072,-0.08611145,0.11448517,12.88387181,77.64056959,4.13
152281969453,-0.52821654,-1.2242279,9.67692,-0.01965027,-0.026739502,0.19059296,12.88387181,77.64056959,4.13
152281969474,-0.40617982,-1.495456,8.780806,0.00856781,0.013327027,0.19694977,12.88391214,77.64055986,3.98
152281969496,-0.080760196,-1.9627746,10.066469,-0.063986205,0.02382965,0.17666778,12.88391214,77.64055986,3.98
152281969517,-0.32375032,-1.3286728,9.061007,-0.05543823,0.013442993,0.1517456,12.88391214,77.64055986,3.98
152281969538,0.17539063,-1.5800384,9.893231,0.055485535,-0.022827148,0.10153656,12.88391214,77.64055986,3.98
152281969559,-0.34384918,-1.7415543,9.983322,0.16885833,-0.022221375,0.13280945,12.88391214,77.64055986,3.98
152281969581,-0.26189423,-1.6274185,9.068306,-0.05495453,-0.053617857,0.124378964,12.88394459,77.6405569,3.63
152281969602,-0.46109772,-1.1382049,9.204931,-0.019889832,-0.052638244,0.14954376,12.88394459,77.6405569,3.63
152281969623,-0.1954956,-1.7084153,10.817816,-0.044447325,-0.12361755,0.1577301,12.88394459,77.6405569,3.63
152281969644,-0.26345062,-0.99750674,8.836919,-3.4637452E-4,-0.13155822,0.28576964,12.88394459,77.6405569,3.63
152281969665,-0.68423,-1.9760529,10.820564,-0.012928772,-0.13302307,0.4632843,12.88394459,77.6405569,3.63
152281969687,-0.6760925,-1.9396805,9.371117,-0.07266541,-0.06729736,0.57873994,12.88397666,77.64054036,3.17
152281969708,-0.41085052,-1.5545578,10.497058,0.25107878,0.007585144,0.64776456,12.88397666,77.64054036,3.17
152281969729,-0.21691284,-2.8030136,11.585673,-0.0128036495,0.11129761,0.62430876,12.88397666,77.64054036,3.17
152281969751,0.6403183,-1.5038284,8.699092,0.111924745,0.11826477,0.4421524,12.88397666,77.64054036,3.17
152281969772,-0.046421815,-1.5716645,10.501722,0.11535187,0.097984314,0.25839996,12.8839797,77.64052133,2.13
152281969793,0.29754487,-2.0097916,9.691633,-0.100637816,0.07318573,0.12987518,12.8839797,77.64052133,2.13
152281969814,0.15780182,-1.3325058,9.787348,0.028363038,-0.0032852173,0.009307861,12.8839797,77.64052133,2.13
152281969836,-0.15625305,-1.3917252,9.768326,-0.009750366,-0.09576569,-0.023553466,12.8839797,77.64052133,2.13
152281969857,-0.80626374,-0.9606613,9.537539,0.013211059,-0.08880005,0.13232116,12.8839797,77.64052133,2.13
152281969878,-0.3281769,-1.7494507,10.073649,-0.04591217,-0.056913756,0.28393707,12.88398823,77.64049878,2.46
152281969899,-0.2354538,-2.0039322,9.865713,-0.0035247803,-0.03541565,0.29358825,12.88398823,77.64049878,2.46
152281969921,-0.2169098,-1.9955536,9.990499,-0.03576813,-0.06717682,0.2824707,12.88398823,77.64049878,2.46
152281969942,-0.55370027,-2.096173,9.682902,0.05792389,-0.061801147,0.37263185,12.88398823,77.64049878,2.46
152281969963,-0.5605194,-1.9120438,9.895622,0.062200926,-7.2021486E-4,0.47440186,12.88398823,77.64049878,2.46
152281969984,0.011006164,-2.1092117,9.688406,0.05596924,0.037757874,0.48784485,12.88399263,77.64048032,1.86
152281970006,-0.081954956,-1.9156342,9.621407,0.03287964,0.035069276,0.39743194,12.88399263,77.64048032,1.86
152281970027,-0.1095932,-1.7088944,9.493151,0.0055130003,0.034579467,0.29859313,12.88399263,77.64048032,1.86
152281970048,-0.11736908,-1.5922425,9.960588,0.011499023,0.027250672,0.24410553,12.88399263,77.64048032,1.86
152281970069,-0.32279357,-1.8383439,9.864756,-0.007925415,0.04166565,0.23433685,12.88399263,77.64048032,1.86
152281970090,0.01854248,-1.890271,9.657895,0.019561768,0.05546875,0.17825775,12.88399017,77.64046642,1.52
152281970112,0.0918808,-2.402574,9.874685,0.009300232,0.021871949,0.021398926,12.88399017,77.64046642,1.52
152281970133,-0.26703948,-2.0901885,9.659691,0.021151733,-0.007197571,-0.0457901,12.88399017,77.64046642,1.52
152281970154,-0.17192535,-2.4560547,9.895981,-0.018302917,0.008560181,-0.040412903,12.88399017,77.64046642,1.52
152281970175,-0.59007263,-2.3774505,9.431892,-0.008166504,0.051316835,0.009542847,12.88398687,77.64045361,1.36
152281970197,-0.4200592,-3.2626739,9.805174,-0.010858154,0.05278473,0.04020386,12.88398687,77.64045361,1.36
152281970218,-0.57810515,-2.4768708,9.721067,-0.02490387,-1.0986328E-4,0.01040802,12.88398687,77.64045361,1.36
152281970239,-0.67322236,-1.1166703,9.666632,0.021029662,-0.025512695,0.01822052,12.88398687,77.64045361,1.36
152281970260,-0.542453,-1.4602798,9.838196,0.0060028075,-0.002922058,0.045948792,12.88398687,77.64045361,1.36
152281970282,-0.33739012,-1.3053436,9.785074,-0.023809815,-0.052883912,0.04216156,12.8839855,77.64044718,0.37
152281970303,-0.2963516,-1.1324631,9.818575,0.004170227,-0.06839752,0.008085633,12.8839855,77.64044718,0.37
152281970324,-0.22360992,-1.3062989,9.611354,0.0018493652,-0.05496063,-0.006575012,12.8839855,77.64044718,0.37
152281970345,-0.10863342,-1.3301071,9.781485,-0.0018127442,-0.07316132,-0.009260559,12.8839855,77.64044718,0.37
152281970367,0.18915252,-1.259401,9.751694,-0.0016937256,-0.06534119,-0.0075515746,12.8839855,77.64044718,0.37
