timestamp,accx,accy,accz,gyrx,gyry,gyrz,latitude,longitude,speed
152282074672,-0.67106783,-0.8645859,9.833168,-0.019389343,0.0033370971,0.0045562745,12.87620475,77.64777185,0.0
152282074693,-0.8228943,-1.364685,9.832811,-0.0025360107,0.008830261,4.0283203E-4,12.87619893,77.64776767,0.27
152282074713,-0.7308899,-1.2378647,9.828028,-2.1209716E-4,0.013473511,8.94165E-4,12.87619893,77.64776767,0.27
152282074734,-0.9436127,-1.0228698,9.872653,-0.0031433105,-0.009237671,-4.5013428E-4,12.87619893,77.64776767,0.27
152282074756,-0.8323425,-1.0473999,9.762938,-0.007174683,-0.033303834,-0.0041137696,12.87619893,77.64776767,0.27
152282074777,-0.62369233,-1.2530625,9.999951,0.009562683,-0.03391266,-0.00582428,12.87619893,77.64776767,0.27
152282074798,-0.5677002,-1.5659225,9.8582945,-0.0010681152,-0.03537903,-0.001914978,12.87619765,77.64776537,0.18
152282074820,-0.48574525,-1.144426,9.825632,-9.460449E-4,-0.0126571655,-0.0024032593,12.87619765,77.64776537,0.18
152282074841,-0.59174347,-1.1992248,9.759352,0.003694153,0.006628418,-0.0033828735,12.87619765,77.64776537,0.18
152282074862,-0.28115845,-0.9029892,9.590658,0.009194946,0.0030914308,-0.008024598,12.87619765,77.64776537,0.18
152282074883,-0.312265,-0.75236356,9.668185,0.039248656,-0.009605408,-0.029281616,12.87619787,77.64776701,0.16
152282074905,-0.54185486,-0.0912262,10.0959015,0.004676819,-0.03440399,-0.046873473,12.87619787,77.64776701,0.16
152282074926,-0.33846742,0.12675934,9.780411,-0.0031433105,-0.04417572,-0.054447938,12.87619787,77.64776701,0.16
152282074947,-0.35007018,0.06562348,9.308185,-0.044551086,-0.044422913,0.009806824,12.87619787,77.64776701,0.16
152282074968,-0.8555527,0.3282364,10.2471285,-0.022813415,0.0029724122,0.121463016,12.87619787,77.64776701,0.16
152282074989,-0.2782837,-0.24580078,9.5679245,2.807617E-4,0.055381775,0.16092376,12.87620163,77.64776252,0.7
152282075011,0.04402771,0.61130524,10.002101,-0.02354126,0.065885924,0.047309875,12.87620163,77.64776252,0.7
152282075032,-0.72275543,0.408992,10.6957855,0.027888488,0.057818603,-0.028427124,12.87620163,77.64776252,0.7
152282075053,0.30687866,-0.0847641,8.497496,0.04096222,0.06734772,-0.10783539,12.87620163,77.64776252,0.7
152282075074,0.7470398,0.42370757,10.064199,0.0041915895,0.036805727,-0.23208618,12.87620163,77.64776252,0.7
152282075096,0.24023743,-0.65605164,8.911217,0.0056549073,-0.1001297,-0.3559723,12.87621438,77.64775275,2.09
152282075117,-1.7568115,0.24137573,10.61215,-2.1057129E-4,-0.15009919,-0.14583893,12.87621438,77.64775275,2.09
152282075138,-1.0187454,-0.0336792,9.777298,0.005895996,-0.03000946,0.21187134,12.87621438,77.64775275,2.09
152282075159,0.2903656,-0.4385422,9.567205,0.017385865,0.08921967,0.104725644,12.87621438,77.64775275,2.09
152282075181,0.41921845,-0.36771545,9.741646,0.0011352539,-0.021095276,-0.15585022,12.8762355,77.64773808,2.99
152282075202,-0.9239899,-0.09697113,9.55321,0.0041915895,-0.1344574,-0.101486206,12.8762355,77.64773808,2.99
152282075223,-0.45954132,0.03427582,10.191976,-0.011566162,-0.08388062,0.12292786,12.8762355,77.64773808,2.99
152282075244,-0.41802675,-0.22725983,9.670817,0.006626892,-0.009242249,0.12805787,12.8762355,77.64773808,2.99
152282075266,-0.30329132,-0.26291198,9.902922,0.013595581,0.03412323,0.104847714,12.8762355,77.64773808,2.99
152282075287,-0.23689118,-0.36999053,9.920985,0.012374878,0.051223755,0.058300782,12.87626549,77.64771959,3.83
152282075308,-0.09236298,-0.30705872,9.5824,-0.017678833,0.05378723,0.038633727,12.87626549,77.64771959,3.83
152282075329,-0.025245667,-0.0059249876,9.643059,1.5563965E-4,0.059288025,0.018243408,12.87626549,77.64771959,3.83
152282075351,-0.5686554,-0.44105682,9.4091625,-0.0063156127,0.0076141357,-0.022929382,12.87626549,77.64771959,3.83
152282075372,-0.6795624,0.018008422,9.683619,0.007359314,-0.007408142,0.004312134,12.87626549,77.64771959,3.83
152282075393,-0.25926057,-0.31196594,9.877317,0.0022293092,-0.0054595945,-0.006678772,12.87634096,77.64767992,5.24
152282075414,-0.42209625,-0.079740904,9.951258,-0.010714722,0.031674195,0.04230194,12.87634096,77.64767992,5.24
152282075436,-0.2989853,-0.20691833,9.902086,-0.002534485,0.06575928,-0.010960388,12.87634096,77.64767992,5.24
152282075458,-0.114378355,-0.507576,9.841429,-0.013531494,0.03741608,-0.042840578,12.87634096,77.64767992,5.24
152282075478,-0.118205264,-0.51140594,9.992291,0.010171508,-0.03891907,-0.08254852,12.87634096,77.64767992,5.24
152282075499,-0.5730804,-0.47036895,9.771194,-0.0061981203,-0.08522797,-0.02867279,12.87641069,77.64763891,7.22
152282075521,-0.7142593,-0.58079684,9.812952,-0.0031402588,-0.052360535,0.016653443,12.87641069,77.64763891,7.22
152282075542,-0.4048645,-0.6601181,9.56398,0.010293579,-0.021084595,0.025566101,12.87641069,77.64763891,7.22
152282075563,-0.5382675,-0.69684905,9.668185,-0.027207946,-0.006921387,0.019941712,12.87641069,77.64763891,7.22
152282075584,-0.4402832,-0.69445646,9.87923,0.02507782,0.0049240114,0.026052857,12.87647385,77.64758911,8.26
152282075606,-0.34468538,-0.8367065,10.151655,-0.019265747,0.04633484,0.03570404,12.87647385,77.64758911,8.26
152282075627,-0.39816743,-0.5446655,9.891792,0.0057785036,0.055253603,0.0018753052,12.87647385,77.64758911,8.26
152282075648,-0.31417695,-0.8163727,9.609917,-0.017071534,0.046214294,-0.020121764,12.87647385,77.64758911,8.26
152282075669,-0.39326018,-0.8527435,9.501285,-0.0033859252,0.01335144,-0.03551483,12.87647385,77.64758911,8.26
152282075691,-0.1956131,-0.9324234,9.498533,-0.024642944,-0.02279663,-0.055303954,12.87653128,77.6475315,8.93
152282075712,-0.3154953,-0.93074644,9.2706175,-0.010836792,-0.069467165,-0.044062804,12.87653128,77.6475315,8.93
152282075733,-0.39374083,-0.72508544,10.033445,-0.00582428,-0.10049896,-0.014743042,12.87653128,77.6475315,8.93
152282075754,-0.50237274,-1.0328033,9.732794,0.007487488,-0.052238464,0.027400207,12.87653128,77.6475315,8.93
152282075776,-0.3643097,-0.8602783,9.957117,0.0034561157,-0.030497741,0.029838562,12.87653128,77.6475315,8.93
152282075797,-0.3664627,-1.050029,9.724538,0.013349915,-0.021575928,0.031300355,12.87660259,77.64749132,9.47
152282075818,-0.40749818,-1.0095917,9.964177,0.017510986,-0.01864624,0.031063844,12.87660259,77.64749132,9.47
152282075839,-0.6185486,-0.8868393,9.862124,0.0021118163,-0.007406616,0.047798157,12.87660259,77.64749132,9.47
152282075861,-0.27996367,-0.8437683,9.672972,0.009927368,0.010537719,0.046203613,12.87660259,77.64749132,9.47
152282075882,-0.39948273,-1.1210968,9.656937,-0.016088868,0.024224853,0.039855957,12.87667314,77.6474351,9.96
152282075903,-0.3652649,-1.0527802,9.6721325,0.03289642,0.044992067,0.039242554,12.87667314,77.6474351,9.96
152282075924,-0.2699112,-1.2174088,9.978294,-0.02659607,0.056111146,0.018608093,12.87667314,77.6474351,9.96
152282075946,-0.16917267,-0.97776794,9.731117,0.015548706,0.04609375,-2.0751954E-4,12.87667314,77.6474351,9.96
152282075967,-0.28797913,-1.2023315,10.060968,-0.024034118,-0.004603577,-0.02622528,12.87667314,77.6474351,9.96
152282075988,-0.3122635,-1.4533402,9.009801,-0.0061935424,-0.05859375,-0.013519287,12.87675151,77.64737307,10.36
152282076009,-0.61902463,-1.1390426,9.994925,-0.006072998,-0.04576111,0.026664734,12.87675151,77.64737307,10.36
152282076031,-0.53994447,-1.0304077,9.775383,0.021903992,0.01567688,0.04033661,12.87675151,77.64737307,10.36
152282076052,-0.42915496,-1.561734,9.884497,-0.05457306,0.05830841,0.028614808,12.87675151,77.64737307,10.36
152282076073,-0.2803238,-1.4633926,9.453311,-0.004969788,0.07028198,0.013102722,12.87675151,77.64737307,10.36
152282076095,-0.3291336,-1.5477356,10.501964,0.060995482,0.044869997,-0.04015503,12.87682429,77.64731597,10.55
152282076115,-0.31609344,-1.8917068,9.428307,-0.033798218,-0.008023071,-0.041009523,12.87682429,77.64731597,10.55
152282076137,-0.31346282,-1.6592423,9.566731,0.053785704,-0.011195374,-0.021585083,12.87682429,77.64731597,10.55
152282076158,-0.5621948,-1.4929444,9.919672,-0.036738586,-0.0262146,-0.026101684,12.87682429,77.64731597,10.55
152282076179,-0.5411377,-1.6014572,9.646887,0.0045547485,-0.03525696,-0.021708678,12.87682429,77.64731597,10.55
152282076201,-0.42161712,-1.7437103,10.073288,-0.015357971,-0.033914186,-0.007170105,12.87689371,77.64725648,10.4
152282076222,-0.546402,-1.4984467,9.94312,2.7770997E-4,-0.024266053,0.0076141357,12.87689371,77.64725648,10.4
152282076243,-0.3278183,-1.5971482,9.933189,0.01713257,-0.0015472412,0.015063477,12.87689371,77.64725648,10.4
152282076264,-0.26237488,-1.7389237,9.654068,-0.0065658567,0.0021148683,0.009567261,12.87689371,77.64725648,10.4
152282076285,-0.29946136,-1.5259628,9.718435,0.0051651,0.0038269043,0.0021148683,12.87696219,77.6472025,10.08
152282076307,-0.38321227,-1.5671203,9.81415,-0.010719299,0.018605042,0.009077454,12.87696219,77.6472025,10.08
152282076328,-0.3437317,-1.5710678,9.752531,-0.01303711,0.009324646,-0.0014266968,12.87696219,77.6472025,10.08
152282076349,-0.50417024,-1.5751358,9.996719,0.005163574,0.010543823,-0.0054595945,12.87696219,77.6472025,10.08
152282076371,-0.5475998,-1.4728409,9.583242,-0.027694702,0.009690857,-5.767822E-4,12.87696219,77.6472025,10.08
152282076392,-0.45882416,-1.6629486,9.778972,-0.0033874512,0.0060211183,-0.01328125,12.87703449,77.64714603,9.83
152282076413,-0.39505464,-1.6623551,9.916321,0.008094788,0.0028427124,-0.0061935424,12.87703449,77.64714603,9.83
152282076434,-0.50237733,-1.658287,9.776339,0.023612976,-0.013885498,-0.018652344,12.87703449,77.64714603,9.83
152282076455,-0.38620147,-1.7685944,9.3919325,-0.021711731,-0.008018494,0.011643982,12.87703449,77.64714603,9.83
152282076477,-0.4908905,-1.5422332,9.960352,0.022750854,0.0382782,0.022268677,12.87703449,77.64714603,9.83
152282076498,-0.30161437,-1.7450225,9.356997,-0.037467957,0.07101593,-0.00753479,12.87710274,77.64708906,9.59
152282076519,-0.1002594,-1.9281967,9.495184,0.03448639,0.0037078857,-0.08059235,12.87710274,77.64708906,9.59
152282076541,-0.30065918,-1.7524414,9.7102995,-0.027444458,-0.060913086,-0.051516723,12.87710274,77.64708906,9.59
152282076562,-0.6301514,-1.2948151,10.001984,0.024710083,-0.090603635,-0.022439575,12.87710274,77.64708906,9.59
152282076583,-0.6016754,-1.3164718,10.127609,-0.009861755,-0.06213379,0.029353332,12.87717401,77.64703213,9.35
152282076604,-0.7375885,-1.2463608,9.775983,-0.024154663,0.016409302,0.059524536,12.87717401,77.64703213,9.35
152282076626,-0.4317871,-1.738089,9.720108,0.028495789,0.09776916,0.051216125,12.87717401,77.64703213,9.35
152282076647,-0.40187532,-1.1147553,9.489443,-0.047366332,0.13258973,0.024827575,12.87717401,77.64703213,9.35
152282076668,-0.23569337,-1.2249482,9.682901,0.05561676,0.14651795,-0.028305054,12.87717401,77.64703213,9.35
152282076689,-0.24562378,-1.3144348,10.473849,0.0018676758,0.079689026,-0.100508116,12.87724249,77.64697225,9.22
152282076711,-0.41431886,-1.2658631,9.475202,0.010295105,0.024467468,-0.092443846,12.87724249,77.64697225,9.22
152282076732,-0.4666031,-1.1189454,10.18647,0.02715149,0.022270203,-0.0804718,12.87724249,77.64697225,9.22
152282076753,-0.40809783,-1.2221954,9.447805,-0.0049713133,0.0368103,-0.07680817,12.87724249,77.64697225,9.22
152282076702,-0.3309311,-1.1798432,9.89359,0.05427704,0.0027267456,-0.1102829,12.87724249,77.64697225,9.22
152282076724,-0.21870422,-1.3649261,9.848244,-0.008029175,-0.047961425,-0.12029724,12.87731396,77.64692319,9.39
152282076745,-0.61076814,-1.1995819,9.981646,0.031062316,-0.08046265,-0.08364868,12.87731396,77.64692319,9.39
152282076766,-0.4354965,-1.5867386,9.362744,-0.029649353,-0.037457276,-0.03930054,12.87731396,77.64692319,9.39
152282076787,-0.42496794,-1.4365921,9.552134,0.028007507,0.02080841,-0.034535218,12.87731396,77.64692319,9.39
152282076809,-0.36717987,-1.3722214,9.775024,0.0023513795,-0.0170578,-0.09317627,12.87739536,77.64688945,9.7
152282076830,-0.46181792,-0.84759825,9.410355,-0.033311464,-0.06372376,-0.06324615,12.87739536,77.64688945,9.7
152282076851,-0.44782105,-1.1191833,10.15082,0.0216568,-0.08033905,-0.049562074,12.87739536,77.64688945,9.7
152282076873,-0.52474517,-0.8020142,9.982005,-0.011694336,-0.045640565,-9.399414E-4,12.87739536,77.64688945,9.7
152282076894,-0.3458847,-1.5573089,9.413229,-0.010476684,0.009689331,0.00944519,12.87739536,77.64688945,9.7
152282076915,-0.35808867,-1.29422,9.829103,0.036320496,0.024223328,-0.019754028,12.87747784,77.64685016,9.96
152282076936,0.01854248,-1.549414,9.203258,-0.015113831,0.008229065,-0.048461914,12.87747784,77.64685016,9.96
152282076957,-0.18389282,-1.4095504,9.815582,0.00259552,-0.038438417,-0.040034484,12.87747784,77.64685016,9.96
152282076979,-0.42460632,-1.6004989,9.215582,-0.030265808,-0.087789916,-0.029771423,12.87747784,77.64685016,9.96
152282077000,-0.39637297,-0.86351013,9.675364,0.012864685,-0.08864899,0.009692383,12.87747784,77.64685016,9.96
152282077021,-0.73148805,-1.5382828,9.874806,0.012744141,-0.07056274,0.026052857,12.87756534,77.64681151,10.11
152282077043,-0.386084,-1.315155,9.478434,-0.041255187,0.013842774,0.070394896,12.87756534,77.64681151,10.11
152282077064,-0.32794037,-1.6556518,9.6721325,0.075531006,0.051347353,0.034725953,12.87756534,77.64681151,10.11
152282077085,-0.25495607,-1.2854843,9.87397,-0.075337216,0.05269165,0.009196472,12.87756534,77.64681151,10.11
152282077106,-0.3379883,-1.0902297,9.798472,0.08078613,-0.0028869628,-0.02060547,12.87756534,77.64681151,10.11
152282077127,-0.04737854,-1.3153946,10.265073,-0.068496704,-0.025119018,-0.0077789305,12.87765024,77.64676673,10.48
152282077149,-0.48203582,-1.2297318,9.571756,0.04938812,-0.054315187,0.0033340454,12.87765024,77.64676673,10.48
152282077170,-0.16020355,-1.5201004,9.490517,-0.027941894,-0.061647035,0.008224487,12.87765024,77.64676673,10.48
152282077191,-0.534317,-1.1349777,9.680748,0.0060165403,-0.06824799,0.030084228,12.87765024,77.64676673,10.48
152282077212,-0.50309294,-1.2798584,10.047926,0.012620544,-0.04503479,0.0558609,12.87773419,77.6467251,10.58
152282077234,-0.41024932,-1.1201401,9.6657915,-0.034051515,0.0061416626,0.06782989,12.87773419,77.6467251,10.58
152282077255,-0.43525696,-1.616893,9.747386,0.022512818,0.03705139,0.063308716,12.87773419,77.6467251,10.58
152282077276,-0.2539978,-1.72397,9.639473,-0.020613099,0.07467957,0.057444762,12.87773419,77.6467251,10.58
152282077298,-0.23748931,-1.5135224,9.588504,0.01725769,0.06331787,0.017871093,12.87773419,77.6467251,10.58
152282077319,-0.26955262,-1.3260422,9.791534,0.003451538,0.028253173,-0.0031326294,12.87781907,77.64667189,10.7
152282077340,-0.2779297,-1.4690125,9.522581,-0.006321716,-0.0028869628,-0.00423584,12.87781907,77.64667189,10.7
152282077361,-0.4255646,-1.3618164,9.478674,-0.018536378,-0.013760376,0.00920105,12.87781907,77.64667189,10.7
152282077382,-0.54449004,-1.5847076,9.841187,0.030696105,-0.0036209107,0.013478088,12.87781907,77.64667189,10.7
152282077404,-0.51577455,-1.6323227,9.679911,-0.0015579223,0.0129852295,0.017390441,12.87781907,77.64667189,10.7
152282077425,-0.27733308,-1.1740967,9.984876,0.008705139,0.008583069,0.0011337281,12.8779042,77.64661788,10.96
152282077446,-0.25411987,-1.4389832,9.827067,0.010415649,0.0021148683,7.720947E-4,12.8779042,77.64661788,10.96
152282077467,-0.3487564,-1.1818756,9.887604,-0.0099838255,0.0061431886,0.0076141357,12.8779042,77.64661788,10.96
152282077489,-0.4857437,-1.2494705,9.851713,-0.0065628053,0.007487488,0.0017486572,12.8779042,77.64661788,10.96
152282077510,-0.45343933,-1.275554,10.050919,0.046574403,0.012254333,7.69043E-4,12.87798944,77.64656953,10.97
152282077531,-0.21176605,-1.1373657,10.071376,-0.033435058,0.012129212,-0.0047271727,12.87798944,77.64656953,10.97
152282077552,-0.34121856,-1.3588257,10.010837,0.014204407,4.119873E-5,-0.011444092,12.87798944,77.64656953,10.97
152282077574,-0.3919449,-1.3280761,9.757197,-0.0016799927,-0.019255066,-0.008514404,12.87798944,77.64656953,10.97
152282077595,-0.33009186,-1.7671585,9.335701,-0.0037506104,-0.019500732,-6.896973E-4,12.87798944,77.64656953,10.97
152282077616,-0.14931336,-1.2160919,10.355161,-0.0019180297,0.0060211183,0.014576721,12.87807271,77.64651452,11.05
152282077637,-0.34360963,-1.226381,9.708384,-0.007662964,0.011766052,2.822876E-4,12.87807271,77.64651452,11.05
152282077659,-0.37806702,-1.2181244,9.758754,-4.6081544E-4,0.0100570675,-0.0037506104,12.87807271,77.64651452,11.05
152282077680,-0.5212784,-1.2616761,10.35301,-0.002534485,-0.003741455,-0.010466004,12.87807271,77.64651452,11.05
152282077701,-0.3324829,-1.5977478,9.099052,-0.012428284,-0.008021546,0.001992798,12.87807271,77.64651452,11.05
152282077723,-0.05730896,-1.5527633,9.815702,0.0033325194,0.0021118163,-5.722046E-4,12.87815793,77.64646225,11.06
152282077744,-0.44016266,-1.1892945,9.7782545,-0.0021713257,-0.0060653687,-0.007536316,12.87815793,77.64646225,11.06
152282077765,-0.57021177,-1.4252228,9.725374,0.010049438,-0.0036254884,1.6326904E-4,12.87815793,77.64646225,11.06
152282077786,-0.4347763,-1.4233093,10.109781,-0.0015579223,0.015548706,0.0100540165,12.87815793,77.64646225,11.06
152282077808,-0.18652344,-1.2176468,10.169962,0.025439452,0.030699158,-0.0031341552,12.87815793,77.64646225,11.06
152282077829,-0.057785034,-1.7591431,9.400427,-0.015722657,-0.0013031006,-0.024028014,12.87824455,77.64640905,11.1
152282077850,-0.49902344,-0.871167,9.654546,-0.0033874512,-0.025367737,-0.015112305,12.87824455,77.64640905,11.1
152282077871,-0.4094116,-1.3242493,9.761263,0.005163574,-0.035380553,-0.008514404,12.87824455,77.64640905,11.1
152282077892,-0.4060623,-1.3628906,9.227667,5.203247E-4,-0.028663635,0.0067565916,12.87824455,77.64640905,11.1
152282077914,-0.5005783,-1.1701508,10.143878,-0.010717774,-0.019984435,0.009568786,12.87833213,77.64635265,11.21
152282077935,-0.45021057,-1.4523834,9.251595,-0.021954346,0.008709717,0.028619384,12.87833213,77.64635265,11.21
152282077956,-0.35713196,-1.3534393,10.614906,0.030203247,0.02972107,0.013235474,12.87833213,77.64635265,11.21
152282077977,-0.49866638,-1.2751954,10.097577,0.00675354,0.025447082,-9.368897E-4,12.87833213,77.64635265,11.21
152282077999,-0.4176666,-1.4562118,8.852353,-0.0245224,-0.002645874,-0.014132691,12.87833213,77.64635265,11.21
152282078020,-0.1853241,-1.5999024,9.777059,0.022755433,-0.010462952,-0.004722595,12.87841999,77.64629628,11.13
152282078041,-0.3838089,-1.2652619,9.587069,-0.027088929,-0.0027679442,0.0013824463,12.87841999,77.64629628,11.13
152282078062,-0.3582077,-1.4509475,9.855185,0.03289795,-0.019499207,-0.0058258055,12.87841999,77.64629628,11.13
152282078084,-0.35437927,-1.255455,10.495624,-0.019874573,-0.022920227,0.002973938,12.87841999,77.64629628,11.13
152282078105,-0.5036896,-1.1891724,9.532153,-0.011331176,-0.024998475,0.0051696775,12.87841999,77.64629628,11.13
152282078126,-0.43154603,-1.4953353,9.812711,-0.008392334,-0.018399049,0.01933899,12.87850426,77.64624648,11.24
152282078147,-0.37399903,-1.2644272,9.757439,-0.010838318,0.008714294,0.02544403,12.87850426,77.64624648,11.24
152282078169,-0.54915315,-1.7232513,9.66316,0.014204407,0.015306091,0.024101257,12.87850426,77.64624648,11.24
152282078190,-0.57200927,-1.2876358,9.865354,0.011639404,0.04951172,0.026176453,12.87850426,77.64624648,11.24
152282078211,-0.36035767,-1.3080933,9.667348,-0.008033752,0.051715087,0.0041915895,12.87859292,77.64619761,11.14
152282078233,-0.0943985,-1.189531,9.659807,-9.002686E-5,0.02288208,-0.033680726,12.87859292,77.64619761,11.14
152282078253,-0.6849457,-1.3222122,10.036441,-0.0061981203,-0.02230835,-0.026350403,12.87859292,77.64619761,11.14
152282078275,-0.34720308,-1.5537201,9.766411,-3.3416747E-4,-0.016200256,-0.001550293,12.87859292,77.64619761,11.14
152282078296,-0.39338225,-1.7891724,9.336662,0.004676819,0.0149383545,0.004560852,12.87859292,77.64619761,11.14
152282078317,-0.24658355,-1.8838104,9.345034,-0.0032669068,0.010787964,-0.017794799,12.8786791,77.6461498,10.99
152282078339,-0.3558151,-1.2134583,9.6212845,-0.007659912,-0.0037445067,-0.016329955,12.8786791,77.6461498,10.99
152282078360,-0.49184418,-1.3857406,9.832453,0.034605406,-0.029640198,-0.022683715,12.8786791,77.6461498,10.99
152282078381,-0.5738007,-1.1584259,10.425275,-0.022442628,-0.04173584,-0.004484558,12.8786791,77.6461498,10.99
152282078403,-0.4492569,-1.4458039,9.705633,-0.02916565,-0.009855652,0.014453125,12.8786791,77.6461498,10.99
152282078423,-0.5053665,-1.5246475,9.839632,0.029719543,0.012980652,0.012620544,12.87876755,77.6460861,10.92
152282078445,-0.34875488,-1.3219742,9.735184,-0.013157654,0.020188903,8.911133E-4,12.87876755,77.6460861,10.92
152282078466,-0.32829744,-1.5617325,9.615184,0.010173035,0.009806824,-0.0077819824,12.87876755,77.6460861,10.92
152282078487,-0.26201478,-1.7750549,9.200625,-0.02659607,0.0021148683,-0.007168579,12.87876755,77.6460861,10.92
152282078509,-0.2909668,-1.8909867,9.721547,0.03766022,-2.0141601E-4,-0.013522339,12.87885355,77.64603471,10.84
152282078530,-0.4112076,-1.8406188,10.244974,-0.036244202,-0.02841339,-0.019999694,12.87885355,77.64603471,10.84
152282078551,-0.3186081,-1.7936004,9.220129,0.01676941,-0.03342743,4.0893554E-4,12.87885355,77.64603471,10.84
152282078572,-0.3672989,-2.2275376,9.38308,-0.017068481,-0.031718444,0.0017532349,12.87885355,77.64603471,10.84
152282078593,-0.56877744,-1.3114471,10.137057,5.2490237E-4,-0.03037262,0.010789489,12.87885355,77.64603471,10.84
152282078615,-0.4896927,-1.5838684,9.737936,0.026060486,-0.01217041,0.027278136,12.87893862,77.64598714,10.65
152282078636,-0.48885497,-1.5772873,9.594487,-0.0151168825,0.02716217,0.039727785,12.87893862,77.64598714,10.65
152282078657,-0.5704483,-1.801857,9.799789,0.0073577883,0.052322388,0.024226379,12.87893862,77.64598714,10.65
152282078678,-0.48335114,-1.697052,9.656578,-0.0063186646,0.08005829,0.017874146,12.87893862,77.64598714,10.65
152282078700,-0.005145264,-1.8601211,9.742485,0.010173035,0.055502318,-0.03856201,12.87893862,77.64598714,10.65
152282078721,-0.3403824,-1.7006394,9.939051,0.00614624,-0.004597473,-0.05383606,12.87901969,77.64593939,10.33
152282078742,-0.49531555,-1.5687943,9.651796,-0.013523865,-0.039776612,-0.03856659,12.87901969,77.64593939,10.33
152282078816,-0.53623354,-1.2550933,9.549501,-0.007055664,-0.038438417,-0.014746094,12.87901969,77.64593939,10.33
152282078836,-0.43968353,-1.6843674,10.235522,0.02483368,-0.046862792,-0.017431641,12.87901969,77.64593939,10.33
152282078858,-0.30424803,-1.7955154,9.53371,-0.0075424192,-0.055293273,-0.0035079955,12.87901969,77.64593939,10.33
152282078879,-0.63170624,-1.6127014,10.080465,0.011271668,-0.0334198,0.021051025,12.8790934,77.64588703,10.24
152282078900,-0.5535797,-1.5550354,10.1763,-0.003755188,-0.0024017333,0.026547242,12.8790934,77.64588703,10.24
152282078922,-0.2785263,-1.5407975,9.739729,-0.011329651,0.014698791,0.022511292,12.8790934,77.64588703,10.24
152282078943,-0.44937438,-1.3297516,9.744757,0.024588013,0.00541687,0.013720703,12.8790934,77.64588703,10.24
152282078964,-0.5233124,-1.5291916,9.385951,-0.025987243,0.014334107,0.02129364,12.87916797,77.64584203,10.0
152282078985,-0.34875336,-1.5595795,9.385353,0.014692688,0.03693237,0.010913086,12.87916797,77.64584203,10.0
152282079006,-0.3456436,-1.3615754,10.154048,-0.002165222,0.02715454,-9.414673E-4,12.87916797,77.64584203,10.0
152282079028,-0.21140747,-1.1602188,10.127129,0.0077301026,0.01946106,-0.0070480346,12.87916797,77.64584203,10.0
152282079049,-0.52941436,-1.3052247,10.389142,-0.01010437,0.005293274,-0.015478516,12.87916797,77.64584203,10.0
152282079070,-0.3556946,-1.2590439,9.502963,4.0283203E-4,-0.0015457154,-0.013520813,12.87924057,77.64580184,9.96
152282079091,-0.5286957,-1.1455017,10.116959,0.005162048,-0.024993896,-0.018655395,12.87924057,77.64580184,9.96
152282079113,-0.38201445,-1.3490143,10.196164,-0.018652344,-0.038801573,-0.004237366,12.87924057,77.64580184,9.96
152282079134,-0.4534424,-1.3900483,9.6671095,0.04352417,-0.017054748,0.00688324,12.87924057,77.64580184,9.96
152282079155,-0.7441696,-1.1749359,9.857458,-0.049316406,-0.006922913,0.018609619,12.87924057,77.64580184,9.96
152282079177,-0.44602355,-1.3236496,9.859731,-0.005340576,-0.012052918,0.0046813963,12.87931371,77.64575468,10.04
152282079198,-0.3872803,-1.9199402,9.523661,0.022999573,-0.013879394,0.0033370971,12.87931371,77.64575468,10.04
152282079219,-0.6008377,-1.413858,9.847768,-0.027328491,-0.0027709962,0.016896058,12.87931371,77.64575468,10.04
152282079240,-0.42305297,-1.831047,9.76964,0.046824645,0.010421753,0.0112838745,12.87931371,77.64575468,10.04
152282079261,-0.32985228,-1.6794647,10.017654,-0.030499268,0.020314027,0.01567688,12.87939006,77.64570565,10.09
152282079283,-0.33392182,-1.894336,9.67632,0.017501831,0.00773468,0.0012573242,12.87939006,77.64570565,10.09
152282079304,-0.45930785,-1.7267212,9.8322115,0.010787964,-0.006677246,-0.00753479,12.87939006,77.64570565,10.09
152282079325,-0.4348999,-1.5994202,9.7388935,-0.00533905,-0.01693573,8.94165E-4,12.87939006,77.64570565,10.09
152282079346,-0.455954,-2.0691345,9.566371,0.014202881,-0.0010604858,0.014334107,12.87939006,77.64570565,10.09
152282079368,-0.4706711,-1.596791,9.6556225,-0.016088868,0.0040679933,0.007858276,12.87946375,77.64568073,9.68
152282079389,-0.42042238,-1.3985412,9.810438,0.022386169,0.04169464,0.023858642,12.87946375,77.64568073,9.68
152282079410,-0.4155136,-1.3339401,9.624995,-0.0047302246,0.06332092,-0.0054595945,12.87946375,77.64568073,9.68
152282079431,-0.08016205,-1.6283753,9.703478,0.02996521,0.014456177,-0.056892395,12.87946375,77.64568073,9.68
152282079453,-0.47246552,-1.2745956,9.99337,5.187988E-4,-0.039530944,-0.04259491,12.87946375,77.64568073,9.68
152282079474,-0.3489929,-1.422116,9.862363,-0.047973633,-0.06372528,-0.016334534,12.87953958,77.64562853,9.38
152282079495,-0.5669815,-1.2425339,9.722384,2.7770997E-4,-0.041001894,0.011523438,12.87953958,77.64562853,9.38
152282079516,-0.48981172,-1.7457443,9.448881,-0.022201538,-0.0032608032,0.03300934,12.87953958,77.64562853,9.38
152282079538,-0.36179504,-1.2290146,10.318794,0.05317688,0.037783813,0.012989807,12.87953958,77.64562853,9.38
152282079559,-0.31130677,-1.5027511,9.877437,-0.012545777,0.040107727,0.0011413575,12.87953958,77.64562853,9.38
152282079612,-0.4235321,-0.9533585,9.948024,-0.009494019,0.054400634,-0.007295227,12.87961737,77.64557847,9.5
152282079633,-0.2403595,-1.705542,10.602461,0.0666153,0.028990174,-0.03795471,12.87961737,77.64557847,9.5
152282079655,-0.2171524,-1.5461823,9.868345,-0.027453613,-0.02866211,-0.061166383,12.87961737,77.64557847,9.5
152282079676,-0.4577484,-1.4263016,9.890953,0.00186615,-0.09292297,-0.036364745,12.87961737,77.64557847,9.5
152282079697,-0.4358551,-1.7959915,9.345392,-0.019996643,-0.059202574,0.02324524,12.87968907,77.64556005,9.57
152282079719,-0.5277389,-1.4460465,9.641748,-0.0011886597,0.0010147095,0.0341156,12.87968907,77.64556005,9.57
152282079740,-0.4639679,-1.9644439,10.042664,0.013346863,0.033999633,0.013966369,12.87968907,77.64556005,9.57
152282079761,-0.43657073,-1.7941971,9.861885,-0.029888917,0.038275145,-8.1329345E-4,12.87968907,77.64556005,9.57
152282079782,-0.10014038,-2.3583038,9.987749,0.01884613,0.012744141,-0.025982667,12.87968907,77.64556005,9.57
152282079804,-0.43633118,-2.2057617,9.505353,-0.014874267,-0.03733368,-0.03453369,12.8797562,77.64550894,9.33
152282079825,-0.48753816,-2.2527816,9.680151,-0.01877594,-0.05138092,-0.009367371,12.8797562,77.64550894,9.33
152282079847,-0.6564728,-2.7007186,9.502962,0.014692688,-0.05028229,0.017877197,12.8797562,77.64550894,9.33
152282079867,-0.67537534,-1.9736588,11.038434,-0.0109588625,-0.037457276,0.023493957,12.8797562,77.64550894,9.33
152282079888,-0.49208373,-2.377687,9.255302,0.025445556,-0.02206726,0.047914125,12.8797562,77.64550894,9.33
152282079910,-0.46468657,-2.5782044,8.254982,0.019697571,0.045970153,0.08908997,12.87982428,77.64546823,8.64
152282079931,-0.118206784,-1.76716,8.090838,-0.013528442,0.09532623,0.046569824,12.87982428,77.64546823,8.64
152282079952,-0.070826724,-2.3361726,9.204338,0.011398315,0.11646271,0.00993042,12.87982428,77.64546823,8.64
152282079973,-0.351268,-2.1509674,9.289282,-0.01084137,0.06820679,-0.07472839,12.87982428,77.64546823,8.64
152282079995,-0.182695,-1.6598419,10.324057,0.010414124,-0.016696166,-0.100386046,12.8798855,77.64542008,7.86
152282080016,-0.7111481,-2.1648483,9.781725,0.01078186,-0.056512453,-0.06617737,12.8798855,77.64542008,7.86
152282080037,-0.5682968,-1.8929017,9.630977,-0.008641052,-0.036726378,-0.006190491,12.8798855,77.64542008,7.86
152282080058,-0.43597564,-1.92724,9.702161,0.010173035,-0.016566467,-0.009613037,12.8798855,77.64542008,7.86
152282080080,-0.5909103,-1.7685928,10.228943,0.0028381348,-0.015586853,-0.015110779,12.8798855,77.64542008,7.86
152282080101,0.0010757446,-2.3433502,10.04254,-0.016583253,-0.016934205,-0.015109253,12.87994359,77.6453956,7.21
152282080122,-0.5082382,-1.7646453,10.36366,-0.011578369,0.0074905395,-0.0046051024,12.87994359,77.6453956,7.21
152282080143,-0.3548584,-2.4032912,9.020686,0.0021087646,0.014936829,-0.016696166,12.87994359,77.6453956,7.21
152282080165,-0.41300353,-2.077626,10.29056,-0.0036331178,0.0070007322,-0.043943785,12.87994359,77.6453956,7.21
152282080186,-0.3723236,-2.3304276,9.86703,3.5095214E-5,-0.01546936,-0.04198761,12.87994359,77.6453956,7.21
152282080207,-0.42975312,-2.9411957,9.365494,0.018235778,-0.033670045,-0.025006104,12.8799947,77.64536783,6.5
152282080228,-0.6087372,-2.6344376,9.7617445,-0.008520508,-0.02645874,-0.008392334,12.8799947,77.64536783,6.5
152282080250,-0.44075927,-2.2567306,9.200148,-0.005467224,-0.015708923,0.019343566,12.8799947,77.64536783,6.5
152282080271,-0.54915315,-1.8535401,9.731474,-8.2244875E-4,-0.016563416,-0.005337524,12.8799947,77.64536783,6.5
152282080292,-0.4764099,-1.2775879,10.016222,0.013716126,-0.026582336,0.004312134,12.88003837,77.64534445,5.59
152282080313,-0.7792252,-1.2397827,9.49351,0.014324951,0.002973938,0.053419493,12.88003837,77.64534445,5.59
152282080335,-0.34157714,-1.4041672,9.708264,-0.0053482056,0.062220763,0.07442322,12.88003837,77.64534445,5.59
152282080357,-0.17623444,-1.5165069,10.09949,0.019329835,0.07883301,-0.021096801,12.88003837,77.64534445,5.59
152282080377,-0.24993286,-1.5623306,9.968126,-0.004003906,0.11047821,-0.025614928,12.88003837,77.64534445,5.59
152282080398,0.22276917,-1.7773285,10.228943,0.017747497,0.11328888,-0.10429077,12.88007485,77.64532657,5.12
152282080420,0.20733795,-2.0108688,9.318113,0.012860107,0.03278351,-0.23868561,12.88007485,77.64532657,5.12
152282080442,-0.57906497,-1.8375092,9.743319,-3.3569336E-4,-0.08388214,-0.26336518,12.88007485,77.64532657,5.12
152282080462,-0.89132845,-1.9259217,10.001866,-0.0020446777,-0.101472475,-0.06727447,12.88007485,77.64532657,5.12
152282080483,-0.49029237,-1.5362518,9.946109,-0.0013092041,-0.05798187,-0.006069946,12.88007485,77.64532657,5.12
152282080505,-0.70289457,-1.7775666,9.940129,-0.0043640137,-0.053459167,-0.001184082,12.88011984,77.64530323,4.94
152282080526,-0.6561127,-1.7193009,9.788546,-0.006201172,0.012374878,0.04510803,12.88011984,77.64530323,4.94
152282080547,-0.20578308,-1.8444488,9.6194935,0.016644288,0.08641052,0.058422852,12.88011984,77.64530323,4.94
152282080568,0.012081909,-1.674916,9.830538,0.005041504,0.07162628,-0.09158631,12.88011984,77.64530323,4.94
152282080590,-0.5631531,-1.8322418,9.494466,0.024099732,0.05782013,-0.11578064,12.88011984,77.64530323,4.94
152282080611,-0.075856015,-2.0356324,9.624994,-0.009861755,0.08824005,-0.12103424,12.88015534,77.6452817,4.55
152282080632,0.015074158,-2.2978866,8.475484,-0.07644348,0.06930542,-0.20618744,12.88015534,77.6452817,4.55
152282080654,0.13710633,-2.1770492,11.383479,-0.08890228,-0.04662323,-0.37979585,12.88015534,77.6452817,4.55
152282080675,-0.7590057,-1.2582077,9.127048,0.38365632,-0.19176331,-0.20141754,12.88015534,77.6452817,4.55
152282080696,-0.5661438,-2.0062013,11.144798,-0.043940734,-0.1741684,-0.047612,12.88018547,77.64527381,3.91
152282080717,-0.6754944,-1.0605576,8.440071,-0.03453827,-0.08021698,0.09421997,12.88018547,77.64527381,3.91
152282080738,-0.080638126,-1.3797607,13.5489855,0.029968262,-0.05468292,0.13197021,12.88018547,77.64527381,3.91
152282080760,-0.38476714,-0.4232315,6.608124,0.19049378,-0.043569945,0.16373444,12.88018547,77.64527381,3.91
152282080781,-0.17862701,-1.7519653,11.956202,-0.14131317,-8.239746E-5,0.055740356,12.88018547,77.64527381,3.91
152282080802,-0.31322175,-0.10629883,7.551375,-0.113580324,-0.022065734,0.119874574,12.88021739,77.64526622,3.74
152282080823,-0.21655121,-0.2274994,11.437558,0.15421295,-0.04527588,0.11632995,12.88021739,77.64526622,3.74
152282080845,0.0059829713,-0.59611356,7.2142243,-0.10075073,-0.047962952,0.11144409,12.88021739,77.64526622,3.74
152282080866,-0.651207,-0.23120423,9.928644,0.11340179,-0.08168335,0.1535904,12.88021739,77.64526622,3.74
152282080887,-0.15709075,-0.07842255,10.239592,-0.055793762,-0.067388915,0.18535614,12.88021739,77.64526622,3.74
152282080908,-0.35066986,-1.115474,8.692273,0.016404724,-0.024874877,0.23899384,12.88025317,77.64526117,4.0
152282080930,-0.25472108,-0.45601195,10.464159,0.0033355714,0.04255066,0.26232606,12.88025317,77.64526117,4.0
152282080951,-0.5832504,-0.3671158,9.944555,-0.005340576,0.10656433,0.22432709,12.88025317,77.64526117,4.0
152282080972,-0.38440856,-0.9380463,9.785074,0.01799469,0.16031952,0.14601746,12.88025317,77.64526117,4.0
152282080993,-0.09846344,-0.63679045,9.680629,-0.040516663,0.17351532,0.075286865,12.88029467,77.64524303,4.7
152282081015,0.26990968,-0.66047823,9.809122,0.039126586,0.06686401,-0.12017517,12.88029467,77.64524303,4.7
152282081036,-0.6704712,-0.7130005,10.216021,0.017381286,-0.09511872,-0.14265747,12.88029467,77.64524303,4.7
152282081057,-0.8081772,-0.73824465,9.8265915,0.004797363,-0.08375855,0.06356201,12.88029467,77.64524303,4.7
152282081078,-0.5046509,-0.45529327,9.842026,0.018847656,0.043040466,0.11657562,12.88029467,77.64524303,4.7
152282081100,0.09750824,-0.5185852,10.118753,-0.013769532,0.06381073,-0.008024598,12.88033715,77.64522414,5.39
152282081121,-0.21607208,-0.41318053,10.039314,2.822876E-4,-0.0184021,-0.08120422,12.88033715,77.64522414,5.39
152282081142,-0.005265808,-0.7034302,9.744037,-0.00851593,-0.06787872,-0.02903595,12.88033715,77.64522414,5.39
152282081163,-0.8725449,-0.8592011,9.523419,-0.0099823,-0.06298981,0.022758484,12.88033715,77.64522414,5.39
152282081185,-0.09894562,-0.7259232,9.747507,-0.017192077,-0.017427063,0.06721954,12.88033715,77.64522414,5.39
152282081206,-0.6796829,-0.3117264,10.120067,-0.007537842,0.07407074,0.1158432,12.88039023,77.64520135,6.08
152282081227,0.39983827,-0.5628525,10.412832,0.023980713,0.12635955,0.022265624,12.88039023,77.64520135,6.08
152282081248,0.53252107,-0.78454745,9.9319935,-0.0055892942,-0.029522706,-0.14656678,12.88039023,77.64520135,6.08
152282081270,-0.8431122,-0.6811768,9.76653,7.644653E-4,-0.12529755,-0.032453917,12.88039023,77.64520135,6.08
152282081291,-0.8562729,-0.6433716,9.867747,-0.007788086,-0.027445983,0.09372864,12.88044397,77.6451708,6.68
152282081312,-0.5801407,-0.39475554,10.2102785,-0.020362854,0.12024994,0.12879029,12.88044397,77.6451708,6.68
152282081334,-0.034457397,-0.7302292,9.831018,0.034240723,0.12538299,-0.04308472,12.88044397,77.6451708,6.68
152282081355,-0.10097809,-0.7807175,10.056541,0.016279602,-0.0077789305,-0.11284485,12.88044397,77.6451708,6.68
152282081376,-0.6086197,-0.76600343,9.565532,-0.016088868,-0.07679901,-0.05469055,12.88044397,77.6451708,6.68
152282081397,-0.49555665,-0.61334074,9.792017,-0.003024292,-0.06543274,-0.006552124,12.88050016,77.64513491,7.26
152282081418,-0.6835114,-0.82558286,9.958913,-0.0025360107,-0.020230103,0.040463258,12.88050016,77.64513491,7.26
152282081440,-0.4875366,-0.46618348,9.697019,-0.010112,0.053178407,0.038877867,12.88050016,77.64513491,7.26
152282081461,-0.28857422,-0.9119614,10.024356,0.0011337281,0.0606308,-0.005091858,12.88050016,77.64513491,7.26
152282081482,-0.18448791,-1.0190445,9.723101,-2.1362305E-4,0.023002625,-0.04626312,12.88050016,77.64513491,7.26
152282081503,-0.3060425,-1.0750366,9.601542,0.0113952635,-0.03379059,-0.060800172,12.88056644,77.64509744,7.75
152282081525,-0.35126954,-0.77844393,9.972074,-0.023173522,-0.05016327,-0.017060852,12.88056644,77.64509744,7.75
152282081546,-0.5125443,-0.50207216,9.909739,0.030087281,-0.026705932,-0.0010620117,12.88056644,77.64509744,7.75
152282081567,-0.46109772,-0.86602324,9.901364,-0.039546203,-0.015222168,0.009811401,12.88056644,77.64509744,7.75
152282081588,-0.5877975,-0.80452573,9.741526,0.022998046,-0.0016662597,0.0038253784,12.88056644,77.64509744,7.75
152282081610,-0.49124756,-0.85441744,9.727887,-0.01682434,0.009811401,0.012133789,12.88062708,77.64505714,8.17
152282081631,-0.3293747,-0.77389985,9.982481,-0.008395386,-2.0751954E-4,-0.019998169,12.88062708,77.64505714,8.17
152282081652,-0.42125854,-0.80416566,10.121504,0.019819641,-0.065802,-0.031848144,12.88062708,77.64505714,8.17
152282081673,-0.80961305,-0.9084946,9.608603,-0.034786988,-0.069589235,0.03117981,12.88062708,77.64505714,8.17
152282081695,-0.70456696,-0.77904356,9.861883,0.01408081,0.021177674,0.076626584,12.88069796,77.64501506,8.55
152282081716,-0.3610794,-1.053859,9.938457,-0.005218506,0.085551456,0.051454164,12.88069796,77.64501506,8.55
152282081737,-0.3316452,-0.98470765,9.997556,0.01737671,0.09398346,-7.93457E-5,12.88069796,77.64501506,8.55
152282081758,-0.10217285,-1.1335388,9.67309,-0.00229187,0.034974672,-0.058602907,12.88069796,77.64501506,8.55
152282081780,-0.5352753,-0.9746567,10.105949,0.006629944,-0.04711151,-0.04784851,12.88069796,77.64501506,8.55
152282081801,-0.63517606,-1.136769,9.827066,-0.007661438,-0.026708985,0.0013824463,12.88076592,77.64497219,8.81
152282081822,-0.46504515,-0.9252426,9.384874,-0.01486969,0.003213501,0.010423278,12.88076592,77.64497219,8.81
152282081843,-0.25388184,-1.2425308,9.734944,0.037290953,4.043579E-4,-0.025738526,12.88076592,77.64497219,8.81
152282081865,-0.39266357,-0.9762131,9.465752,-0.051516723,-0.044297792,-0.02720337,12.88076592,77.64497219,8.81
152282081886,-0.5325241,-0.99355775,9.7058735,0.049876403,-0.060183715,-0.010466004,12.88076592,77.64497219,8.81
152282081907,-0.54352874,-0.8893509,9.779449,-0.041622926,-0.035990905,0.029840088,12.8808409,77.64493336,8.98
152282081928,-0.6626938,-0.83993834,9.684814,0.017990112,0.007736206,0.03972931,12.8808409,77.64493336,8.98
152282081950,-0.40797728,-1.0822128,9.944315,-0.012667847,0.040104676,0.024472047,12.8808409,77.64493336,8.98
152282081971,-0.32195586,-0.8676956,9.82049,0.004432678,0.056599427,0.02153473,12.8808409,77.64493336,8.98
152282081992,-0.27182618,-0.9423523,10.240189,0.015055847,0.043157957,-0.026228333,12.88091381,77.64488977,9.23
152282082013,-0.28977355,-1.0604385,9.747147,0.014445496,-0.005337524,-0.036610413,12.88091381,77.64488977,9.23
152282082035,-0.3091553,-1.1164291,9.4959,-0.040646363,-0.035502624,-0.028671265,12.88091381,77.64488977,9.23
152282082056,-0.79071045,-0.5565094,9.981644,0.039131165,-0.04258728,0.0017486572,12.88091381,77.64488977,9.23
152282082077,-0.45487517,-0.8327652,9.602023,-0.07460632,-0.0136322025,0.007247925,12.88091381,77.64488977,9.23
152282082098,-0.50871736,-0.36532745,10.432211,0.07236023,-0.011801148,0.005897522,12.88098736,77.64483739,9.45
152282082120,-0.42700195,-0.821637,10.8939085,-0.023782348,-0.013150024,-0.0072891237,12.88098736,77.64483739,9.45
152282082141,-0.5168503,-0.42311248,9.642225,0.017015075,-0.028053284,0.009814453,12.88098736,77.64483739,9.45
152282082162,-0.22576293,-1.0089935,9.947546,-0.0054611205,-0.019989014,0.0034622191,12.88098736,77.64483739,9.45
152282082183,-0.5897125,-0.58582306,9.718313,-0.028063964,-0.010092163,0.030697633,12.88098736,77.64483739,9.45
152282082205,-0.4341797,-1.0368698,9.963582,0.039126586,0.024468994,0.028497314,12.88106009,77.64478872,9.73
152282082226,-0.34396973,-0.84843445,9.803619,-0.028430175,0.057211302,0.02678833,12.88106009,77.64478872,9.73
152282082247,-0.22839507,-0.9741791,9.418734,0.043647766,0.05562439,-0.008020019,12.88106009,77.64478872,9.73
152282082269,-0.4223358,-0.5407165,9.761505,-0.04614105,0.0010192872,-0.029161071,12.88106009,77.64478872,9.73
152282082290,-0.41312256,-0.9394806,9.950658,0.036073305,-0.02780304,-0.024882507,12.88106009,77.64478872,9.73
152282082311,-0.6625732,-1.0026505,9.60908,-0.057258606,-0.029641723,3.8146973E-5,12.88113171,77.64473311,10.07
152282082332,-0.5364731,-0.8584854,9.6321745,0.04938812,0.007002258,0.018612672,12.88113171,77.64473311,10.07
152282082353,-0.3036499,-0.9967896,10.1937685,-0.015361023,0.02483368,-0.0032608032,12.88113171,77.64473311,10.07
152282082375,-0.5274994,-1.1255233,9.319311,-0.0030181885,0.0038238526,-0.013764953,12.88113171,77.64473311,10.07
152282082396,-0.5167328,-0.5371277,9.860446,0.021047974,-0.018034363,-0.01328125,12.88121513,77.64467808,10.4
152282082417,-0.43106994,-0.8681778,9.830538,-0.019509887,-0.02011261,-0.0043609617,12.88121513,77.64467808,10.4
152282082438,-0.55429995,-0.6924225,9.863439,0.007116699,-0.0031356812,0.0050476072,12.88121513,77.64467808,10.4
152282082459,-0.41156465,-1.1251647,9.656817,-0.015242005,0.008830261,-0.0014266968,12.88121513,77.64467808,10.4
152282082481,-0.44901428,-0.7699493,9.550695,0.0012557984,0.004801941,-0.007899475,12.88121513,77.64467808,10.4
152282082502,-0.6452255,-0.77078706,10.12234,0.019088745,-0.008872986,-0.0057006837,12.88129496,77.64462501,10.72
152282082523,-0.43214265,-1.0100724,9.857816,-0.027813721,0.0033325194,-0.0021621704,12.88129496,77.64462501,10.72
152282082545,-0.5862442,-0.6629898,10.052234,0.007002258,-8.0871585E-5,-0.00887909,12.88129496,77.64462501,10.72
152282082566,-0.46779785,-1.0129426,9.550458,-0.011203003,-0.008265686,-0.0044784546,12.88129496,77.64462501,10.72
152282082587,-0.44231567,-1.0655838,9.46623,-0.0040008547,-0.010218811,4.272461E-5,12.88129496,77.64462501,10.72
152282082608,-0.6373291,-1.1226532,9.899692,0.010055542,-0.009971619,-0.004969788,12.88137996,77.64456634,11.03
152282082630,-0.56099856,-1.333458,9.791296,0.01530304,-0.005088806,0.009568786,12.88137996,77.64456634,11.03
152282082651,-0.7956146,-1.0375885,9.41598,-0.012181091,0.002232361,-0.0014297485,12.88137996,77.64456634,11.03
152282082672,-0.4733017,-0.7114456,9.643419,-0.017070007,-9.368897E-4,0.0052948,12.88137996,77.64456634,11.03
152282082693,-0.5017761,-0.8617142,10.184914,0.027886963,0.011763001,-0.0028961182,12.88147027,77.6445173,11.33
152282082715,-0.7182083,-1.1852233,9.305675,-0.041619875,0.0026046752,0.0028533936,12.88147027,77.6445173,11.33
152282082736,-0.45619354,-0.9620941,9.577258,0.00748291,9.0026855E-4,-0.0016708374,12.88147027,77.6445173,11.33
152282082757,-0.2879776,-1.3082138,9.781245,0.042669676,0.013475036,-0.0061935424,12.88147027,77.6445173,11.33
152282082778,-0.30759734,-1.0805404,9.744516,-0.019392395,-0.0039886474,-0.013639832,12.88147027,77.6445173,11.33
152282082799,-0.50859374,-1.275554,9.220488,-0.02305298,-0.016929626,-0.014988708,12.88156584,77.64446617,11.58
152282082821,-0.7610382,-0.98195344,9.825394,-9.414673E-4,-0.017543029,0.002241516,12.88156584,77.64446617,11.58
152282082842,-0.25531617,-1.4126632,9.955922,0.04804535,-0.006187439,-0.0037490844,12.88156584,77.64446617,11.58
152282082863,-0.6850662,-0.90406954,9.633369,-0.03917847,0.009321595,0.016896058,12.88156584,77.64446617,11.58
152282082884,-0.019143676,-1.2151368,10.272016,0.026907349,0.055010986,0.0024810792,12.88156584,77.64446617,11.58
152282082906,-0.09044953,-1.0324433,10.070419,-0.016090393,0.02263794,-0.036732484,12.88165958,77.64441068,11.67
152282082927,-0.4179077,-0.9825516,9.662923,0.01701355,-0.063352965,-0.046995543,12.88165958,77.64441068,11.67
152282082948,-0.51457673,-1.1161926,9.815822,-0.014625549,-0.08595886,-0.015600586,12.88165958,77.64441068,11.67
152282082969,-0.6994232,-1.2724426,9.553449,-0.02696228,-0.066777036,0.01897583,12.88165958,77.64441068,11.67
152282082991,-0.51218414,-1.3169495,9.600825,-8.850098E-5,-0.011315918,0.042907715,12.88175091,77.64434833,11.65
152282083012,-0.38237458,-1.0947769,9.459651,0.003945923,0.04413452,0.037898254,12.88175091,77.64434833,11.65
152282083033,-0.52438813,-1.0846069,9.514685,-0.007902527,0.059529115,0.02312622,12.88175091,77.64434833,11.65
152282083054,-0.31298217,-0.94654083,9.71401,0.009928894,0.036927797,-0.009609985,12.88175091,77.64434833,11.65
152282083076,-0.62895507,-1.0641464,10.095184,0.019335937,0.004560852,-0.011810303,12.88175091,77.64434833,11.65
152282083097,-0.44315338,-1.1748139,9.633967,-0.031484984,-0.013761902,-0.009243774,12.88183603,77.64429209,11.58
152282083118,-0.17025146,-1.4204376,9.648087,-0.01633606,-0.025119018,-6.942749E-4,12.88183603,77.64429209,11.58
152282083139,-0.5107498,-0.9295502,9.791777,0.057818603,-0.016444396,0.0059020994,12.88183603,77.64429209,11.58
152282083161,-0.52271426,-1.179004,9.554289,-0.06519775,-0.016201783,8.9263916E-4,12.88183603,77.64429209,11.58
152282083182,-0.5181686,-1.5238082,9.021045,0.028250122,-0.007772827,0.005415344,12.88183603,77.64429209,11.58
152282083203,-0.4721039,-1.6365097,9.293352,-8.2092284E-4,0.004310608,0.018241882,12.88192492,77.64422923,11.57
152282083224,-0.5374298,-1.4313278,9.8961,0.0044296263,0.04523773,0.029840088,12.88192492,77.64422923,11.57
152282083246,-0.3147766,-1.5905685,10.0761595,0.016404724,0.059043884,-0.02024231,12.88192492,77.64422923,11.57
152282083267,-0.46743774,-1.2026932,9.602382,-0.019509887,0.0110321045,-0.021955872,12.88192492,77.64422923,11.57
152282083288,-0.32590333,-1.7385666,9.437635,0.008581543,-0.021330262,-0.028302003,12.88192492,77.64422923,11.57
152282083309,-0.4465027,-1.3339386,10.015386,0.0032089234,-0.039286803,-0.0061920164,12.88201306,77.64417599,11.5
152282083331,-0.45212403,-1.6385437,9.670697,-0.0015579223,-0.016192626,2.822876E-4,12.88201306,77.64417599,11.5
152282083352,-0.4384857,-1.2256638,9.580725,-0.0016815185,-0.018154908,-8.19397E-4,12.88201306,77.64417599,11.5
152282083373,-0.5864792,-1.8065217,9.792374,-0.0033874512,-0.01607666,2.7923583E-4,12.88201306,77.64417599,11.5
152282083394,-0.52127993,-1.4509461,9.412752,-0.057009887,-0.008259582,0.01151886,12.88209898,77.64412991,11.31
152282083415,-0.72251284,-1.5831512,9.88976,0.044255067,0.006263733,0.015188599,12.88209898,77.64412991,11.31
152282083437,-0.5667435,-1.5263169,9.996721,-0.027209472,0.03277588,0.019702148,12.88209898,77.64412991,11.31
152282083458,-0.4382492,-2.1680741,9.878512,0.072720334,0.04645996,-0.0047317506,12.88209898,77.64412991,11.31
152282083479,-0.24382934,-1.4708099,9.510498,-0.07337799,0.0276474,-0.019267272,12.88209898,77.64412991,11.31
152282083500,-0.6632935,-1.4849274,9.655024,0.012861634,0.0073654177,-0.018652344,12.88218181,77.64407082,11.07
152282083522,-0.3282959,-1.5064605,10.480188,0.068936154,-9.368897E-4,-0.025863647,12.88218181,77.64407082,11.07
152282083544,-0.4054657,-2.0339584,9.354485,-0.060549926,-0.03171692,-0.033067323,12.88218181,77.64407082,11.07
152282083564,-0.73591614,-1.4861206,9.5769,0.013223266,-0.049310304,-0.01302948,12.88218181,77.64407082,11.07
152282083517,-0.3957718,-1.7340164,9.5241375,-0.010594177,-0.031108093,-0.0019134522,12.88218181,77.64407082,11.07
152282083539,-0.66233367,-1.3981857,9.752291,-0.004359436,-0.041244507,-0.004118347,12.88226396,77.64402065,10.8
152282083560,-0.44075927,-1.3365692,9.303998,-3.3874513E-4,-0.024627686,0.0111557,12.88226396,77.64402065,10.8
152282083581,-0.48430938,-0.9016739,9.745112,0.013591004,0.025935363,0.03105774,12.88226396,77.64402065,10.8
152282083602,-0.17946014,-1.1257629,9.7573185,0.007115173,0.057699583,0.010908509,12.88226396,77.64402065,10.8
152282083624,-0.16426697,-1.1049423,9.656342,0.0021072389,0.012867737,-0.032580566,12.88234139,77.64397692,10.6
152282083645,-0.43250275,-0.8919861,10.277278,0.018479919,-0.045768738,-0.03550873,12.88234139,77.64397692,10.6
152282083666,-0.44267425,-1.0505081,9.373151,-0.03917694,-0.05113983,0.0028488159,12.88234139,77.64397692,10.6
152282083687,-0.4224533,-0.91603243,9.846689,0.014935303,-0.018400574,0.021781921,12.88234139,77.64397692,10.6
152282083709,-0.4083374,-1.1904892,9.994806,-0.005705261,0.021047974,0.017999267,12.88234139,77.64397692,10.6
152282083730,-0.33332214,-0.78980863,10.033928,0.014814759,0.015182495,-6.9580076E-4,12.882424,77.64393152,10.67
152282083751,-0.30293274,-0.9972687,9.967527,0.01065979,0.014573669,-0.006802368,12.882424,77.64393152,10.67
152282083772,-0.3525818,-0.9818344,9.685534,-0.007661438,0.005783081,-0.003503418,12.882424,77.64393152,10.67
152282083794,-0.24371186,-1.0106659,9.537537,0.003453064,6.515503E-4,-0.015107727,12.882424,77.64393152,10.67
152282083815,-0.4042694,-0.9689148,9.615901,-0.040887453,-0.025726318,-0.009855652,12.882424,77.64393152,10.67
152282083836,-0.29551545,-1.1234878,9.866312,0.021777343,-0.014006043,-0.0038726807,12.8825141,77.64387731,10.85
152282083857,-0.30305177,-0.91842496,9.825635,-0.020854186,-0.023530578,-0.0070495605,12.8825141,77.64387731,10.85
152282083879,-0.41826782,-0.9486939,9.697377,0.027149964,-0.04576721,0.0017547607,12.8825141,77.64387731,10.85
152282083900,-0.44769898,-1.2444458,9.511098,-0.006442261,-8.163452E-4,0.04119873,12.8825141,77.64387731,10.85
152282083921,-0.14309081,-1.6911865,9.469942,0.0057754517,0.046333313,0.027398681,12.8825141,77.64387731,10.85
152282083942,-0.41658935,-1.5156723,9.870977,0.019094849,0.04853668,-0.0046051024,12.88259978,77.64382536,10.99
152282083964,-0.36658174,-0.7195816,9.928045,-0.005586243,0.008348083,-0.022195434,12.88259978,77.64382536,10.99
152282083985,-0.3952942,-1.0719254,9.486572,-0.026835632,-0.029762268,-0.008757019,12.88259978,77.64382536,10.99
152282084006,-0.3824951,-1.0762329,9.544838,0.016281128,2.883911E-4,0.013598633,12.88259978,77.64382536,10.99
152282084027,-0.12466736,-1.2134597,9.741526,-0.032583617,0.0015060424,-0.0066833496,12.88268271,77.64376197,11.13
152282084049,-0.38201752,-1.3794022,10.132152,0.031918336,-0.0059417724,-0.00986023,12.88268271,77.64376197,11.13
152282084070,-0.47413787,-0.978125,10.164337,0.002232361,-0.041488647,-0.016087342,12.88268271,77.64376197,11.13
152282084091,-0.4326233,-1.1177475,10.191019,-0.0010665894,-0.0076522827,0.027149964,12.88268271,77.64376197,11.13
152282084112,-0.49818572,-0.9829132,9.93307,0.0036956787,0.021414185,0.014944458,12.88268271,77.64376197,11.13
152282084134,-0.5271393,-1.1746979,10.078794,0.0068771364,0.03412323,0.0074920654,12.88277539,77.64371352,11.28
152282084155,-0.2675186,-1.0457245,10.5736265,0.017381286,0.017630005,-0.017552186,12.88277539,77.64371352,11.28
152282084176,-0.57607424,-1.1190628,9.764135,-0.039912414,-0.0015487671,-0.006436157,12.88277539,77.64371352,11.28
152282084197,-0.23736878,-1.0733612,9.846571,0.03265381,0.005895996,-0.01157074,12.88277539,77.64371352,11.28
152282084219,-0.26871642,-1.0859238,9.403178,-0.043936156,-0.019985963,-0.014622497,12.88277539,77.64371352,11.28
152282084240,-0.40594482,-1.1963516,9.487526,0.0203125,-0.034283448,-0.011813355,12.8828624,77.64364771,11.46
152282084261,-0.37316132,-1.1220535,9.790815,-0.014138794,-0.052485656,-4.5013428E-4,12.8828624,77.64364771,11.46
152282084282,-0.77802885,-1.3259217,9.89311,0.010050965,-0.025732422,0.027641296,12.8828624,77.64364771,11.46
152282084304,-0.48634338,-1.187616,9.526171,-0.00388031,0.014819336,0.03374634,12.8828624,77.64364771,11.46
152282084325,-0.31705016,-1.0007416,9.142721,-0.016217042,0.044625856,0.023857117,12.88295424,77.64358826,11.59
152282084346,-0.12382965,-0.80632323,10.242224,0.024098206,0.04988098,0.005162048,12.88295424,77.64358826,11.59
152282084367,-0.18017884,-1.2176498,9.757441,-0.013647461,0.043280028,-0.012174988,12.88295424,77.64358826,11.59
152282084389,-0.3168106,-1.0404571,10.024356,0.010905457,0.010664368,-0.02256317,12.88295424,77.64358826,11.59
152282084410,-0.51864624,-1.0125824,10.20035,0.036073305,-0.019499207,-0.035147093,12.88295424,77.64358826,11.59
152282084431,-0.26476747,-1.2059205,9.189023,-0.02329712,-0.06078949,-0.022561645,12.88304485,77.64353434,11.74
152282084452,-0.6951157,-1.1676376,9.850159,-0.0038772584,-0.05370636,0.0013854981,12.88304485,77.64353434,11.74
152282084474,-0.528096,-1.2981659,9.572235,0.005897522,-0.033180237,0.011401367,12.88304485,77.64353434,11.74
152282084495,-0.63086855,-1.0631912,9.621407,-0.02440033,-0.015475464,0.027522277,12.88304485,77.64353434,11.74
152282084516,-0.5316879,-1.3908875,10.116361,0.03106079,0.030941773,0.02519989,12.88304485,77.64353434,11.74
152282084537,-0.43680876,-1.3445861,10.004018,-0.007543945,0.035949707,0.005897522,12.88313551,77.64347915,11.86
152282084559,-0.52163696,-0.95958406,9.717836,0.0032073974,0.015428161,-0.0025238036,12.88313551,77.64347915,11.86
152282084580,-0.5385071,-0.879303,9.767248,-0.0076675415,0.016401673,0.004196167,12.88313551,77.64347915,11.86
152282084601,-0.2526825,-1.2116638,9.029782,-0.016827393,0.022024537,0.0018753052,12.88313551,77.64347915,11.86
152282084622,-0.39421996,-0.59647065,9.8977785,0.011521911,0.0040710447,-0.016941834,12.88322416,77.64342607,11.94
152282084644,-0.33846587,-1.3516449,9.65251,-0.0026519776,-0.027926635,-0.018527221,12.88322416,77.64342607,11.94
152282084665,-0.5684158,-1.1316239,9.751457,-0.011816407,-0.019624328,0.0052948,12.88322416,77.64342607,11.94
152282084686,-0.44769898,-1.3173081,10.303835,0.021165466,0.013717651,0.016168213,12.88322416,77.64342607,11.94
152282084707,-0.42006072,-1.2227905,9.547106,-0.0061950684,0.036320496,0.0032150268,12.88322416,77.64342607,11.94
152282084729,-0.37077028,-0.9029907,10.011914,0.018971253,0.033872984,-0.0070480346,12.88331533,77.64336475,12.07
152282084750,-0.474617,-1.5130386,10.006053,-0.008636475,0.014089966,-0.026716614,12.88331533,77.64336475,12.07
152282084771,-0.47605285,-1.1595032,9.662801,-0.02122345,-0.015835572,-0.019631958,12.88331533,77.64336475,12.07
152282084792,-0.50727844,-1.6088715,10.250238,0.020429993,-0.03867493,-0.030136108,12.88331533,77.64336475,12.07
152282084814,-0.4557144,-1.7145157,9.591017,-0.009373474,-0.049676515,-0.005091858,12.88331533,77.64336475,12.07
152282084835,-0.56722105,-1.4540589,9.624395,0.001498413,-0.02243042,0.0074920654,12.88340899,77.64331173,12.1
152282084856,-0.5816986,-1.645842,9.839394,-0.029650878,0.023249816,0.016288757,12.88340899,77.64331173,12.1
152282084877,-0.5877975,-1.3265213,10.00952,0.03753662,0.039125063,-0.0049713133,12.88340899,77.64331173,12.1
152282084899,-0.35102844,-0.7733002,9.803739,-0.03453674,-0.01266632,-0.036856078,12.88340899,77.64331173,12.1
152282084920,-0.6211792,-1.1023133,9.788547,0.038882446,-0.06714325,-0.021949768,12.88340899,77.64331173,12.1
152282084941,-0.45571288,-1.1111679,9.686968,-0.0096206665,-0.035375975,0.023118591,12.8834994,77.64325801,11.95
152282084962,-0.53874665,-0.8684189,10.015506,0.02898712,0.014451599,0.025691222,12.8834994,77.64325801,11.95
152282084984,-0.32159883,-0.9940384,9.513011,-0.025624085,0.02581482,0.008837891,12.8834994,77.64325801,11.95
152282085005,-0.3138199,-0.6519836,9.430697,0.0021118163,0.01738434,0.004559326,12.8834994,77.64325801,11.95
152282085026,-0.47138518,-0.854895,10.035604,0.018112183,0.018484497,0.0029708862,12.88358885,77.64319804,12.06
152282085047,-0.41730958,-0.93433535,9.813789,-0.037350465,0.043038942,0.013479615,12.88358885,77.64319804,12.06
152282085069,-0.31082764,-1.4285767,9.227788,0.010658264,0.042791747,-0.010955811,12.88358885,77.64319804,12.06
152282085090,-0.5373108,-1.4941391,9.815582,-0.008276368,-0.0071670534,-0.035635374,12.88358885,77.64319804,12.06
152282085111,-0.6252457,-1.4898316,9.771675,5.203247E-4,-0.057980347,-0.0336792,12.88358885,77.64319804,12.06
152282085132,-0.5764313,-1.6805389,9.415743,-0.003025818,-0.07862701,-0.014863586,12.88368638,77.64313649,12.28
152282085154,-0.6528824,-1.5750153,10.036079,0.024710083,-0.03367462,0.027027894,12.88368638,77.64313649,12.28
152282085175,-0.5032135,-1.503711,9.703122,-0.015730286,0.009931946,0.019094849,12.88368638,77.64313649,12.28
152282085196,-0.60239255,-1.3841858,9.717598,-0.009129333,0.015548706,0.007858276,12.88368638,77.64313649,12.28
152282085217,-0.50572205,-1.2454056,9.787706,0.0010070801,0.01737671,0.009933472,12.88368638,77.64313649,12.28
152282085239,-0.47677,-1.1026719,10.252274,0.023487855,0.021289062,0.0027221679,12.88378195,77.64308336,12.04
152282085260,-0.31274414,-1.4353943,9.632652,-0.058110047,0.008468628,-0.004603577,12.88378195,77.64308336,12.04
152282085281,-0.27541655,-1.226979,9.865712,0.051831055,-0.01229248,-0.015719604,12.88378195,77.64308336,12.04
152282085302,-0.2916855,-0.8184067,10.308146,-0.016098022,-0.027322387,-0.012669372,12.88378195,77.64308336,12.04
152282085324,-0.41994324,-0.6958939,9.962143,-0.0010696411,-0.033670045,0.0040710447,12.88386952,77.64301776,11.74
152282085345,-0.31322327,-1.3273575,10.068743,0.016893005,-0.021940613,0.013723755,12.88386952,77.64301776,11.74
152282085366,-0.622258,-1.2131011,10.2001095,-0.004734802,6.5307616E-4,0.022270203,12.88386952,77.64301776,11.74
152282085387,-0.59617156,-1.487558,9.96406,-0.0073013306,0.025445556,0.015187073,12.88386952,77.64301776,11.74
152282085409,-0.5241501,-1.3606186,9.643059,-0.0014343262,0.0012634278,-0.005455017,12.88386952,77.64301776,11.74
152282085430,-0.46600342,-1.5486923,9.881264,-9.4451907E-4,-0.013754273,0.0012619018,12.88396086,77.64296374,11.56
152282085451,-0.501416,-1.4136215,9.643781,-0.023059081,0.009809876,0.01543274,12.88396086,77.64296374,11.56
152282085472,-0.30162048,-1.6067215,9.746431,0.046211243,0.015307617,0.010307312,12.88396086,77.64296374,11.56
152282085494,-0.57056886,-1.662236,9.513728,-0.052864075,0.020802308,0.0015014649,12.88396086,77.64296374,11.56
152282085515,-0.4327423,-1.6700103,9.39301,0.04926605,0.0013854981,-0.011566162,12.88396086,77.64296374,11.56
152282085536,-0.57918394,-1.3411163,10.603061,-0.027941894,-0.015715027,-0.009243774,12.88405169,77.64291004,11.33
152282085557,-0.3556946,-1.2828506,9.780767,-0.0010665894,-0.02414093,-0.0026474,12.88405169,77.64291004,11.33
152282085579,-0.725386,-1.7967132,10.0686245,-0.0033859252,-0.005331421,0.007246399,12.88405169,77.64291004,11.33
152282085600,-0.59258425,-1.7585434,9.347427,-0.0020446777,0.004801941,0.007487488,12.88405169,77.64291004,11.33
152282085622,-0.4687561,-1.652063,9.377217,0.0026000976,0.011883545,1.6021729E-4,12.88405169,77.64291004,11.33
152282085642,-0.38560334,-1.4767914,10.026869,0.04682312,-0.006190491,-0.00423584,12.88413503,77.64286166,11.04
152282085664,-0.70109713,-1.3537979,9.465993,-0.032824706,-0.001550293,0.0033370971,12.88413503,77.64286166,11.04
152282085709,-0.48526612,-1.674318,9.27959,-0.0015533448,0.011885071,0.010789489,12.88413503,77.64286166,11.04
152282085730,-0.48119658,-1.4583648,10.114087,0.001989746,0.014451599,-0.006678772,12.88413503,77.64286166,11.04
152282085751,-0.2871414,-1.1854645,9.251715,-0.029779052,-0.0033782958,-0.013647461,12.88421889,77.64280605,10.76
152282085773,-0.50644076,-1.651825,10.317717,0.02250824,-0.0120483395,-0.008880615,12.88421889,77.64280605,10.76
152282085794,-0.49268493,-1.756511,9.731356,-0.013035583,-0.024258424,-0.0030120849,12.88421889,77.64280605,10.76
152282085815,-0.5272598,-1.6679779,9.57594,0.022387695,-0.010951233,0.017504882,12.88421889,77.64280605,10.76
152282085836,-0.37543488,-1.5896133,9.716522,-0.022564698,0.03362732,0.017626952,12.88421889,77.64280605,10.76
152282085857,-0.44901428,-1.8308074,9.497699,0.056959532,0.021296691,-0.011933899,12.88429861,77.64275783,10.47
152282085879,-0.3091568,-1.3102478,9.625593,-0.052005004,-0.010098266,-0.017428588,12.88429861,77.64275783,10.47
152282085900,-0.7442886,-1.3497314,9.62356,0.017137146,-0.023164367,-0.009494019,12.88429861,77.64275783,10.47
152282085921,-0.42125702,-1.2602402,10.070059,-8.270264E-4,-0.021086121,0.0016235352,12.88429861,77.64275783,10.47
152282085943,-0.46253508,-1.7735001,9.53538,0.018600464,-0.03928833,-0.0015472412,12.88429861,77.64275783,10.47
152282085964,-0.8508865,-1.5329025,9.778013,-0.01975708,-0.025607299,0.023364257,12.88437841,77.64270912,10.19
152282085985,-0.6707077,-1.7093719,9.807688,-0.0019210816,0.03228607,0.054388426,12.88437841,77.64270912,10.19
152282086006,-0.45631257,-1.7305466,9.914525,0.009197998,0.0765152,0.023365784,12.88437841,77.64270912,10.19
152282086027,0.049050905,-1.8503113,9.73231,0.013108825,0.05183258,-0.0350235,12.88437841,77.64270912,10.19
152282086049,-0.42113647,-1.4862411,9.495184,0.0073577883,-0.03171692,-0.056282043,12.88445769,77.64265963,9.91
152282086070,-0.72012025,-1.6422546,9.758992,-0.018051147,-0.05456238,-0.005947876,12.88445769,77.64265963,9.91
152282086091,-0.5587265,-1.7464631,9.446608,0.0120071415,-0.009606933,0.02508087,12.88445769,77.64265963,9.91
152282086113,-0.42388916,-1.5439087,9.918834,0.0028427124,0.041329958,0.016775513,12.88445769,77.64265963,9.91
152282086134,-0.2508896,-1.8824936,9.529401,0.008950805,0.030947875,-0.02060547,12.88445769,77.64265963,9.91
152282086155,-0.52893525,-1.9493713,9.47269,-0.03160553,6.500244E-4,-0.029895019,12.88453489,77.64261378,9.61
152282086176,-0.4918457,-1.8812958,9.800985,0.014205933,-0.002281189,-0.014622497,12.88453489,77.64261378,9.61
152282086197,-0.5296539,-1.828653,10.077959,-0.0020462037,0.021788025,-0.009246826,12.88453489,77.64261378,9.61
152282086219,-0.4369278,-1.9986664,9.855303,0.036805727,0.03155365,-0.02354126,12.88453489,77.64261378,9.61
152282086240,-0.43932495,-2.262233,10.034167,0.014082337,0.009808349,-0.048217773,12.88453489,77.64261378,9.61
152282086261,-0.74034274,-2.2951386,9.830894,-0.0070495605,-0.015103149,-0.047361754,12.88460226,77.64256999,9.1
152282086282,-0.2742203,-2.1863816,8.826988,0.007115173,-0.040393066,-0.044801332,12.88460226,77.64256999,9.1
152282086304,-0.700737,-1.6507477,11.636765,0.04181671,-0.050286867,-0.033924866,12.88460226,77.64256999,9.1
152282086325,-0.44387206,-2.1195006,8.92067,-0.05456848,-0.026222229,-0.004724121,12.88460226,77.64256999,9.1
152282086346,-0.60371244,-1.4769089,8.919472,0.012127685,-0.015344238,0.005657959,12.88460226,77.64256999,9.1
152282086367,-0.54233396,-1.5954742,9.320267,-0.032827757,-0.0033737184,-0.009245301,12.88466793,77.64253497,8.3
152282086389,-0.6946381,-2.5691133,9.872416,0.020555114,-0.0014236451,-0.0041137696,12.88466793,77.64253497,8.3
152282086410,-0.2206192,-1.7285156,9.232691,-0.04174347,0.009812927,0.015919495,12.88466793,77.64253497,8.3
152282086431,-0.90484774,-1.6199982,9.688284,-0.015724182,0.023738097,-0.0017974854,12.88466793,77.64253497,8.3
152282086452,-0.3233902,-2.076552,9.505949,0.027397156,0.00675354,-0.032948304,12.88472632,77.64250561,7.62
152282086474,0.013517762,-1.9772476,10.148064,0.009684754,0.017874146,-0.011691284,12.88472632,77.64250561,7.62
152282086495,-0.64355165,-1.937526,9.541608,0.07516632,0.026913453,-0.01632843,12.88472632,77.64250561,7.62
152282086516,-0.7267014,-1.8146607,9.756599,-0.015234375,-0.022070313,-0.093055725,12.88472632,77.64250561,7.62
152282086538,-0.28247374,-2.3782852,9.678476,0.024710083,-0.067510985,-0.055793762,12.88472632,77.64250561,7.62
152282086559,-0.83569336,-1.793721,9.802542,-0.033436585,-0.036602784,0.018606568,12.88478901,77.64247055,6.93
152282086580,-0.42783815,-2.0601592,9.437157,-0.014379883,-0.01693573,-0.0066833496,12.88478901,77.64247055,6.93
152282086601,-0.17168732,-2.0815766,9.657537,-0.029649353,-0.042222597,-0.016577149,12.88478901,77.64247055,6.93
152282086622,-0.6792053,-1.9302276,9.755046,-0.0036300658,-0.07019959,0.00834961,12.88478901,77.64247055,6.93
152282086644,-0.5318054,-2.0764298,9.90663,0.040837098,-0.033547975,0.07796784,12.88478901,77.64247055,6.93
152282086665,-0.5461639,-1.8848861,9.723579,-0.03905487,0.023858642,0.088719174,12.88483492,77.64244571,5.92
152282086686,-0.07824707,-1.8184845,9.894903,0.026541138,0.011157227,0.034359742,12.88483492,77.64244571,5.92
152282086707,-0.21499634,-1.9412369,10.2770405,-0.0048568724,-0.030371094,-0.0041152956,12.88483492,77.64244571,5.92
152282086729,-0.4203003,-1.9890915,9.435603,-0.014628601,-0.030371094,0.04364624,12.88483492,77.64244571,5.92
152282086750,-0.3590439,-2.0224748,10.026392,0.006750488,-0.0031341552,0.090797424,12.88488241,77.64241649,5.69
152282086771,-0.34887543,-1.7964691,9.909261,-0.018782044,0.0029708862,0.061109923,12.88488241,77.64241649,5.69
152282086792,-0.447937,-1.7227707,9.781962,0.03240814,-0.0016693115,0.058790587,12.88488241,77.64241649,5.69
152282086814,-0.56422883,-2.0321655,10.12426,-0.010839844,0.030944824,0.12500611,12.88488241,77.64241649,5.69
152282086835,-0.1892746,-1.7877381,9.864157,0.00809784,0.0658844,0.07271576,12.88488241,77.64241649,5.69
152282086856,-0.44087678,-2.0229523,9.296817,0.010292053,0.046580505,-0.0068008425,12.88491804,77.64240442,4.55
152282086877,-0.121795654,-2.0925841,9.706592,-0.008151245,0.03265228,-0.025985718,12.88491804,77.64240442,4.55
152282086899,-0.50967103,-2.072841,9.582166,-0.0013137817,0.025689697,-0.06556702,12.88491804,77.64240442,4.55
152282086920,-0.41527557,-1.9421936,9.534785,0.011511231,-0.006188965,-0.077905275,12.88491804,77.64240442,4.55
152282086941,-0.43154755,-1.9819123,9.77359,0.016033936,-0.0019165039,-0.05505829,12.88491804,77.64240442,4.55
152282086963,-0.32614288,-1.9530808,9.910337,-0.016705323,-0.012654114,-0.054203797,12.88494471,77.64237788,3.84
152282086984,-0.5671005,-2.005008,9.375902,6.378174E-4,-0.028660584,-0.09635315,12.88494471,77.64237788,3.84
152282087005,-0.24478607,-1.8570099,9.770599,0.008830261,-0.040997315,-0.046510316,12.88494471,77.64237788,3.84
152282087026,-0.57583314,-1.6101913,9.692232,0.020065308,-0.028050233,0.016038513,12.88494471,77.64237788,3.84
152282087048,-0.57415926,-1.4537003,9.768564,-0.002168274,-0.014733886,0.034844972,12.8849676,77.64236831,3.12
152282087069,-0.10337067,-1.271843,10.0062895,-0.0040008547,-0.0041091917,0.034599304,12.8849676,77.64236831,3.12
152282087090,-0.79405975,-1.0555298,9.642703,0.0034545898,0.0016265869,0.027764892,12.8849676,77.64236831,3.12
152282087103,-0.27601472,-0.73740846,9.245015,0.021902466,0.01787262,0.034722902,12.8849676,77.64236831,3.12
152282087125,-0.2305481,-0.35144654,9.584555,0.007974243,0.02300415,0.029109191,12.8849676,77.64236831,3.12
152282087146,-0.234021,-0.5044678,9.826948,0.0040649413,0.02190094,-0.0014221191,12.88498645,77.64235506,2.65
152282087167,-0.26847535,-0.2966507,10.090998,-0.0014297485,-0.005819702,-0.04272003,12.88498645,77.64235506,2.65
152282087188,-0.379982,-0.36101684,9.506788,-0.013040161,-0.029391479,-0.035391234,12.88498645,77.64235506,2.65
152282087210,-0.35162964,-0.5615341,9.445889,0.0035720826,-0.039533995,0.009315491,12.88498645,77.64235506,2.65
152282087231,-0.5644714,-0.09876404,10.635963,-0.0013153076,-0.01156311,0.05011444,12.88498645,77.64235506,2.65
152282087252,-0.1372284,-1.2434921,9.640429,-0.025013734,-0.0069152834,0.046817016,12.88501544,77.64233747,3.26
152282087274,-0.4639694,-1.15065,9.764498,-0.006930542,-0.009364319,0.032037355,12.88501544,77.64233747,3.26
152282087295,-0.3845291,-1.1019561,9.951137,-4.6081544E-4,-0.0037475587,0.036920168,12.88501544,77.64233747,3.26
152282087316,-0.38644257,-1.7849839,9.825994,0.0024734498,-0.010705566,0.031427003,12.88501544,77.64233747,3.26
152282087337,-0.45666963,-1.9198227,9.425911,-0.007055664,0.0052948,0.040830992,12.88501544,77.64233747,3.26
152282087358,-0.35030976,-2.076671,9.80936,-0.027209472,0.012863159,0.03997345,12.88504361,77.64232068,3.56
152282087380,-0.48921356,-1.7746964,9.797396,2.761841E-4,0.003211975,0.0067596436,12.88504361,77.64232068,3.56
152282087401,-0.6790878,-1.9368118,9.701205,0.014447021,-0.001184082,0.013473511,12.88504361,77.64232068,3.56
152282087422,-0.6128052,-2.0778642,9.561823,-8.6975095E-5,0.036317445,0.08578949,12.88504361,77.64232068,3.56
152282087443,-0.06472778,-1.9335816,9.711375,0.012741089,0.043281555,-0.01486969,12.88506951,77.64231037,3.06
152282087465,-0.2945587,-1.9855042,9.615183,3.9978029E-4,0.0028457642,-0.10075226,12.88506951,77.64231037,3.06
152282087486,-0.5365906,-1.8597596,9.69068,0.007115173,-0.011804199,-0.07472992,12.88506951,77.64231037,3.06
152282087507,-0.33870697,-1.8090317,9.740689,-0.0026550293,-0.00826416,-0.05053711,12.88506951,77.64231037,3.06
152282087528,-0.4145584,-1.7324616,9.917517,5.187988E-4,-0.010829163,-0.036122132,12.88506951,77.64231037,3.06
152282087549,-0.30724335,-1.5150757,9.895979,0.005528259,-0.027807618,-0.046261597,12.88508719,77.64229585,2.43
152282087571,-0.61914366,-1.7236115,9.434408,0.001373291,-0.03855438,-0.01914215,12.88508719,77.64229585,2.43
152282087592,-0.5655457,-1.4877975,10.063001,-5.783081E-4,-0.043078613,0.036312867,12.88508719,77.64229585,2.43
152282087601,-0.57906187,-1.6847274,9.829341,-0.011451721,-0.020236205,0.10044708,12.88508719,77.64229585,2.43
152282087623,-0.44458923,-1.5608994,9.391336,-0.0011932373,0.017262269,0.17326355,12.88508719,77.64229585,2.43
152282087643,-0.14895478,-1.6591232,9.956281,-0.0019241333,0.044503786,0.14210662,12.88509666,77.64228425,1.87
152282087665,0.06221161,-1.4576461,9.598315,-8.850098E-5,0.028866578,0.014691162,12.88509666,77.64228425,1.87
152282087686,-0.10109558,-1.6538589,9.943001,-0.0020477294,0.009928894,-0.118954465,12.88509666,77.64228425,1.87
152282087707,-0.34648132,-1.3175461,9.610278,0.009191895,-0.026950072,-0.123355106,12.88509666,77.64228425,1.87
152282087728,-0.81320345,-1.541275,9.767965,0.012860107,-0.016564941,-0.048217773,12.88510455,77.64226956,1.62
152282087750,-0.5391037,-0.9597031,9.875402,-0.008155823,-0.017788697,0.062088013,12.88510455,77.64226956,1.62
152282087771,-0.3266205,-1.2196808,9.785912,-0.0015594482,-0.017176818,0.056222536,12.88510455,77.64226956,1.62
152282087792,0.17982177,-1.2460006,10.011435,-0.017559815,-0.07032013,-0.029652406,12.88510455,77.64226956,1.62
152282087813,-0.7592438,-1.1928803,9.521146,0.0060211183,-0.1371521,-0.070942685,12.88510455,77.64226956,1.62
152282087835,-1.1880386,-1.1258805,9.748106,-0.009870911,-0.149115,0.2149231,12.88511317,77.64226287,1.35
152282087856,-1.224292,-1.4326416,9.914647,0.009069825,-0.107458495,0.54576266,12.88511317,77.64226287,1.35
152282087877,-1.2095749,-0.76983035,10.240666,0.029963683,0.0027297973,0.8074585,12.88511317,77.64226287,1.35
152282087899,-0.13722992,-2.2319672,9.798716,0.024101257,0.11475372,0.88076174,12.88511317,77.64226287,1.35
152282087920,0.02141266,-1.4309677,9.072731,0.008093262,0.24731597,0.7017807,12.88511317,77.64226287,1.35
152282087941,-0.12490692,-1.9115661,10.775464,-0.04699402,0.2685669,0.29384917,12.88512076,77.64225529,1.25
152282087962,0.8402389,-1.0338806,9.421247,0.018235778,0.19038239,-0.24039459,12.88512076,77.64225529,1.25
152282087983,0.50368804,-0.7510452,10.411516,0.20930938,0.08213349,-0.64332277,12.88512076,77.64225529,1.25
152282088005,0.0978653,-0.3794388,9.117595,0.18487701,-0.0014297485,-0.7588974,12.88512076,77.64225529,1.25
152282088026,-1.6420746,-0.5233673,9.950899,0.16142121,-0.063238524,-0.64161074,12.88512076,77.64225529,1.25
152282088047,-0.3131012,0.3880539,9.986551,-0.08316193,-0.00337677,-0.30563658,12.88512907,77.64224529,1.73
152282088068,-0.599765,-0.19220123,9.71329,0.12415619,0.019949341,-0.3249359,12.88512907,77.64224529,1.73
152282088090,-0.44398803,0.054379273,11.22364,0.039370727,-0.026339721,-0.3585373,12.88512907,77.64224529,1.73
152282088111,-0.48059693,-0.30610198,8.382881,0.06306915,-0.03819275,-0.31186217,12.88512907,77.64224529,1.73
152282088132,-0.4113266,-0.7518829,9.40988,-0.035757445,-0.048570253,-0.24906921,12.88514425,77.64223634,2.38
152282088153,-0.115335084,-0.55375826,9.841188,-0.02110138,-0.094386294,-0.23624115,12.88514425,77.64223634,2.38
152282088175,-0.58433074,-1.0692933,10.317599,0.035710145,-0.13885804,-0.22964478,12.88514425,77.64223634,2.38
152282088196,-0.9597626,-1.1195405,9.951856,-0.045288086,-0.19138947,-0.09036865,12.88514425,77.64223634,2.38
152282088217,-1.4086564,-1.2308075,8.965289,0.16203003,-0.14069366,0.1779068,12.88514425,77.64223634,2.38
152282088238,-1.5578506,-1.6927445,10.678317,-0.06238861,0.06039276,0.41260225,12.88516557,77.64222948,2.78
152282088260,0.41036835,-1.327359,8.967806,-0.04577484,0.20540467,0.37753907,12.88516557,77.64222948,2.78
152282088281,0.95102537,-1.5871003,10.350019,0.04414215,0.14285278,-0.14620514,12.88516557,77.64222948,2.78
152282088302,0.3854828,-1.4686539,9.9396515,-0.03832245,-0.044789124,-0.36000365,12.88516557,77.64222948,2.78
152282088323,-1.3232346,-1.1067398,9.38631,0.09153595,-0.13714905,-0.24186096,12.88516557,77.64222948,2.78
152282088345,-0.9442093,-1.3577454,10.365573,-0.0070526125,-0.110881045,0.06135712,12.88518422,77.64222285,2.27
152282088366,-0.58097994,-0.90969086,9.634448,-0.057008363,-0.024508666,0.21809539,12.88518422,77.64222285,2.27
152282088387,-0.06113739,-1.3516449,10.591817,0.02470703,0.03815155,0.20624542,12.88518422,77.64222285,2.27
152282088408,0.38165587,-0.877388,9.094503,-0.025740052,0.018360902,0.12365723,12.88518422,77.64222285,2.27
152282088430,-0.37890473,-1.058522,10.458295,0.08677216,-0.012788391,-0.010101318,12.88520469,77.64221295,2.82
152282088451,-0.94983214,-0.54825747,9.699532,-0.053593446,0.005415344,0.0789505,12.88520469,77.64221295,2.82
152282088472,-0.41611177,-1.3299897,9.504275,0.004678345,0.0289917,0.13001403,12.88520469,77.64221295,2.82
152282088493,-0.26369172,-1.376889,9.622958,-0.06373139,0.050732423,0.04987793,12.88520469,77.64221295,2.82
152282088515,-0.054200746,-1.4032135,10.291156,0.020681763,0.032287598,-0.04345093,12.88520469,77.64221295,2.82
152282088536,-0.55035096,-1.8463624,9.363818,0.010414124,0.0024810792,-0.07778473,12.88522559,77.6422025,2.53
152282088557,-0.41671142,-1.6988434,9.627986,0.01139679,-0.0077804564,-0.046632387,12.88522559,77.6422025,2.53
152282088578,-0.54161835,-1.898526,9.833048,0.020314027,-0.006184387,-0.05823517,12.88522559,77.6422025,2.53
152282088600,-0.22205201,-1.8628724,9.37614,-0.028919984,-0.027806092,-0.07497406,12.88522559,77.6422025,2.53
152282088621,-0.56722105,-1.8050842,9.845133,1.5411378E-4,-0.04283142,-0.058114626,12.88522559,77.6422025,2.53
152282088642,-0.7184448,-1.5666382,9.75672,-0.0065689087,-0.0076507567,0.069664,12.88524396,77.64219277,2.33
152282088663,-0.21882324,-1.1438293,9.690679,0.0098022465,0.0050476072,0.07393799,12.88524396,77.64219277,2.33
152282088685,-0.18305358,-1.3350159,10.2319355,-0.013648987,-0.0039916993,0.0139633175,12.88524396,77.64219277,2.33
152282088706,-0.821698,-0.8655426,8.77303,0.01737976,0.0032180785,0.039733887,12.88524396,77.64219277,2.33
152282088727,-0.21272126,-0.61334074,9.804934,0.055253603,0.011154175,0.034353636,12.88525839,77.64218582,1.71
152282088748,-0.4074997,-0.45469514,9.725972,8.911133E-4,0.030699158,0.03753052,12.88525839,77.64218582,1.71
152282088770,-0.20841675,-0.6243454,9.463002,-0.036982726,0.033999633,0.007484436,12.88525839,77.64218582,1.71
152282088791,-0.17599335,-1.4735596,9.853511,-0.025743103,0.028379822,-0.06251373,12.88525839,77.64218582,1.71
152282088812,-0.4194641,-1.6141373,9.8354435,0.005281067,-5.6762696E-4,-0.13068084,12.88525839,77.64218582,1.71
152282088833,-0.3940994,-1.3526016,9.795723,-0.0044906614,-0.046495058,-0.186026,12.88527303,77.64217764,2.02
152282088855,-0.93260497,-1.2827332,9.809242,0.0354599,-0.04124298,-0.07485046,12.88527303,77.64217764,2.02
152282088876,-0.42472535,-0.4310074,10.4390335,0.023854066,0.007366943,0.051461793,12.88527303,77.64217764,2.02
152282088897,0.17981872,-0.59694976,9.44673,0.026661683,-0.025489807,-0.0103439335,12.88527303,77.64217764,2.02
152282088918,-0.5600403,-0.52468413,10.477796,-0.012792969,-0.053096008,-0.10294952,12.88527303,77.64217764,2.02
152282088940,-0.68339235,-0.221875,9.962145,-0.056523133,-0.034895323,0.07601166,12.88528965,77.64216738,1.95
152282088961,-0.36263275,-0.36855164,9.51313,0.08616181,0.015428161,0.17448273,12.88528965,77.64216738,1.95
152282088982,-0.13088837,-0.83826447,9.718431,-0.019754028,0.051226806,0.12598114,12.88528965,77.64216738,1.95
152282089003,-0.35437927,-1.2170502,9.714605,-0.020733643,0.07016144,0.033013918,12.88528965,77.64216738,1.95
152282089025,0.012799072,-1.2023331,10.002699,-0.041378785,0.064416505,-0.057017516,12.88528965,77.64216738,1.95
152282089046,-0.09751129,-1.3681533,9.690559,-0.0030181885,-0.015229797,-0.19201355,12.8853064,77.64215746,2.04
152282089067,-0.6296738,-1.2042465,9.22946,-0.00521698,-0.08156128,-0.25493163,12.8853064,77.64215746,2.04
152282089088,-1.45029,-1.3219726,9.73614,0.027520752,-0.06579895,0.012495423,12.8853064,77.64215746,2.04
152282089110,-0.82540286,-1.3247254,9.476402,-0.028059388,0.0050445558,0.14503936,12.8853064,77.64215746,2.04
152282089131,-0.20339203,-1.2848877,9.148226,0.075898744,5.264282E-4,0.0348526,12.8853256,77.64214714,2.34
152282089152,-0.72047883,-1.3354934,9.125491,0.014326477,-0.0019119263,0.0066375732,12.8853256,77.64214714,2.34
152282089173,-0.39170685,-0.89725035,10.012392,-0.02525177,0.028866578,0.054270934,12.8853256,77.64214714,2.34
152282089195,0.0081359865,-0.22630005,9.991455,0.016888428,0.017503357,0.0074890135,12.8853256,77.64214714,2.34
152282089216,-0.18987122,-0.69768524,9.900171,0.023486327,-0.013757324,-0.090853885,12.8853256,77.64214714,2.34
152282089237,-0.7637909,0.04827423,9.728365,-0.04589691,-0.009973144,-0.02366333,12.88534464,77.64213736,2.1
152282089258,-0.37890625,-0.3083725,9.343597,-0.010470581,-0.008995056,0.012742614,12.88534464,77.64213736,2.1
152282089280,-0.32710114,-0.54837495,10.068024,-0.011697387,-0.01254425,-0.008998108,12.88534464,77.64213736,2.1
152282089301,-0.6629318,0.011904907,9.688403,0.05342102,-0.01889038,0.03142395,12.88534464,77.64213736,2.1
152282089322,-0.30556336,-1.0308883,9.000586,-0.033685304,0.021295166,0.03777771,12.88534464,77.64213736,2.1
152282089343,-0.10863495,-1.1663224,10.437719,-0.08157043,0.026792908,0.023124695,12.88536485,77.64212536,2.54
152282089365,-0.34205475,-1.1723053,9.858055,0.040589906,-0.013397217,-0.019752502,12.88536485,77.64212536,2.54
152282089386,-0.50464785,-1.7872574,9.8361635,-0.012792969,-0.007658386,-0.025254821,12.88536485,77.64212536,2.54
152282089407,-0.35617524,-1.3856246,9.737936,-0.08083496,-0.0025222779,-0.0039886474,12.88536485,77.64212536,2.54
152282089428,-0.6434296,-0.74554443,9.819651,0.16031952,-0.04332123,0.011271668,12.8853885,77.64211108,2.9
152282089450,-0.7111481,-0.84891355,9.575824,-0.015235901,0.087509155,0.07650604,12.8853885,77.64211108,2.9
152282089471,-0.015913391,-0.8490326,10.394528,-0.11601563,0.086531065,0.029109191,12.8853885,77.64211108,2.9
152282089492,-0.083631895,-0.86937106,9.81283,0.01921997,0.020683289,-0.13545075,12.8853885,77.64211108,2.9
152282089513,-0.46336976,-0.7719833,10.753209,0.05867157,-0.0044769286,-0.15902862,12.8853885,77.64211108,2.9
152282089535,-0.42711943,-0.20596008,9.206967,0.033999633,-0.0155914305,-0.07155152,12.88541507,77.64209695,3.07
152282089556,0.22504425,-0.7470993,10.451113,0.05195465,-0.03379059,-0.15010528,12.88541507,77.64209695,3.07
152282089577,-0.20817871,-1.3832306,9.726329,-0.11308746,-0.06811981,-0.15035553,12.88541507,77.64209695,3.07
152282089598,-0.75015104,-0.9641296,9.18244,0.08726349,-0.15376587,-0.08633728,12.88541507,77.64209695,3.07
152282089620,-0.49962464,-1.4442475,11.177699,-0.08816528,-0.09842072,0.08835602,12.88541507,77.64209695,3.07
152282089641,-0.6287125,-1.1994629,8.748383,0.023124695,-0.076919556,0.25108948,12.88544063,77.64208274,2.85
152282089662,-0.36789855,-1.4200805,10.179891,0.099357605,-0.0067962646,0.19696197,12.88544063,77.64208274,2.85
152282089683,-0.13435975,-1.0995605,10.083336,-0.11443329,0.034490965,0.19549713,12.88544063,77.64208274,2.85
152282089705,-0.62225497,-0.6139389,9.428065,0.054034423,0.021540832,0.17643738,12.88544063,77.64208274,2.85
152282089726,-0.7307724,-1.3293915,10.283022,-0.03929901,0.1349121,0.20344086,12.88544063,77.64208274,2.85
152282089747,-0.0025146485,-0.5982666,9.623558,0.04682312,0.20234986,0.14772949,12.88546787,77.64206722,3.08
152282089768,0.76366884,-1.2200394,10.27728,0.06062927,0.18708038,-0.1699005,12.88546787,77.64206722,3.08
152282089790,0.78233033,-0.99020845,9.723341,0.02532196,-0.0060653687,-0.45004272,12.88546787,77.64206722,3.08
152282089811,-0.43717194,-1.0781463,9.877794,-0.0033874512,-0.2043396,-0.41070557,12.88546787,77.64206722,3.08
152282089832,-1.6267639,-0.6548538,9.621887,0.012246704,-0.20409545,-0.074732974,12.88549534,77.64204774,3.33
152282089853,-1.0175492,-0.5912048,9.542444,0.06258087,-0.08204498,0.1965973,12.88549534,77.64204774,3.33
152282089875,-0.49962464,-1.0868804,10.475046,-0.008520508,0.027030945,0.19268647,12.88549534,77.64204774,3.33
152282089896,-0.021897888,-1.2034118,9.372075,-0.016213989,0.018360902,0.081510924,12.88549534,77.64204774,3.33
152282089917,-0.38811645,-1.3509277,9.415503,-0.040400695,-0.028294373,0.008592224,12.88549534,77.64204774,3.33
152282089938,-0.95737,-0.8837296,11.158795,0.038883973,0.01763153,0.10398865,12.8855243,77.64202907,3.42
152282089960,-0.6047882,-1.0662994,9.6258335,0.04963684,0.08274384,0.20295104,12.8855243,77.64202907,3.42
152282089981,0.4813156,-1.6637894,10.367605,-0.10831909,0.1494461,0.036315918,12.8855243,77.64202907,3.42
152282090002,0.6721405,-1.2311676,9.51313,0.036808778,0.02899475,-0.23526153,12.8855243,77.64202907,3.42
152282090023,-0.6941589,-1.1913254,10.572192,0.109371945,-0.12615356,-0.26947325,12.8855243,77.64202907,3.42
152282090045,-1.5184829,-1.5502487,9.047483,-0.109788515,-0.107458495,0.028863525,12.88555336,77.64201223,3.25
152282090066,-1.0838302,-1.6024139,8.794327,0.015060425,0.06673889,0.30337828,12.88555336,77.64201223,3.25
152282090087,0.5621933,-1.5148376,10.476362,0.07235565,0.0996048,0.06429596,12.88555336,77.64201223,3.25
152282090108,0.23664704,-1.6934601,9.321584,-0.023295593,0.0015106201,-0.24686737,12.88555336,77.64201223,3.25
152282090130,-0.9395431,-1.7244476,9.629659,-0.051882934,-0.076553345,-0.21180573,12.88558102,77.64199829,3.06
152282090151,-0.8073395,-1.5914047,8.602542,0.021166991,-0.07019959,0.0051651,12.88558102,77.64199829,3.06
152282090172,-0.5470001,-1.1811569,9.950658,0.069546506,-0.05003967,0.003704834,12.88558102,77.64199829,3.06
152282090193,-0.07561493,-1.1913269,10.718874,-0.093048096,-0.024263,0.071984865,12.88558102,77.64199829,3.06
152282090215,-0.5172089,-1.6319656,9.388346,-0.014498902,0.040223695,0.13038024,12.88558102,77.64199829,3.06
152282090236,-0.35724944,-1.1726624,10.448723,-0.08609466,0.11133118,0.1047226,12.88560811,77.64198297,3.0
152282090257,0.5432892,-0.9246445,9.455462,0.22763672,0.09593658,-0.08059235,12.88560811,77.64198297,3.0
152282090278,0.28139344,-1.1913284,8.601942,0.20100251,-0.03196106,-0.24943848,12.88560811,77.64198297,3.0
152282090299,-0.10026245,-0.7004379,11.065834,-0.3667099,-0.06213989,-0.2725235,12.88560811,77.64198297,3.0
152282090321,-0.31705323,-0.15319976,7.9672484,0.16703948,-0.16585235,-0.22805634,12.88560811,77.64198297,3.0
152282090342,-0.9032944,-0.83670807,11.454191,-0.106861874,-0.16378021,0.039247133,12.88562978,77.64196979,2.21
152282090363,-0.8878601,0.32321167,9.490399,0.02679596,-0.08412476,0.21797791,12.88562978,77.64196979,2.21
152282090385,-0.27936554,-0.6854828,10.324059,0.19526061,-0.06958618,0.25609437,12.88562978,77.64196979,2.21
152282090406,-1.275734,0.27379912,10.561785,-0.10025787,0.08384552,0.36055297,12.88562978,77.64196979,2.21
152282090427,0.20554352,-0.7366928,9.815584,0.0700409,0.18316498,0.32842255,12.88565312,77.6419556,3.24
152282090448,0.27361602,-0.43914336,9.620687,-0.027453613,0.22581176,0.03729248,12.88565312,77.6419556,3.24
152282090470,0.46958923,-1.1483765,9.474489,0.03387604,0.08408661,-0.26776275,12.88565312,77.6419556,3.24
152282090491,-0.30460817,-0.772583,10.027708,0.005291748,-0.009609985,-0.21461487,12.88565312,77.6419556,3.24
152282090512,-0.18221588,-0.70773923,9.697737,-0.002772522,-0.08143921,-0.18859711,12.88565312,77.6419556,3.24
152282090533,-0.73328245,-0.6608368,9.907466,0.014692688,-0.15034637,-0.13692017,12.88568016,77.64193581,3.33
152282090555,-1.302655,-0.5803207,10.075086,0.028619384,-0.12041016,0.107414246,12.88568016,77.64193581,3.33
152282090576,-1.1648254,-0.8959335,9.865715,-0.010472107,0.07309113,0.33098906,12.88568016,77.64193581,3.33
152282090597,0.42496186,-0.8472382,9.81032,-0.035758972,0.18182984,0.1369812,12.88568016,77.64193581,3.33
152282090618,0.59653014,-0.9976288,10.024236,-0.10135803,0.07700195,-0.18419342,12.88568016,77.64193581,3.33
152282090640,-0.5554962,-0.36508638,9.415503,0.09923248,-0.056274414,-0.23868255,12.88570784,77.64191648,3.68
152282090661,-1.3267014,-0.78143466,10.161466,0.0032165528,-0.049794007,-0.015115356,12.88570784,77.64191648,3.68
152282090682,-0.6417557,-0.44680023,9.872892,-0.04736023,0.055499267,0.096661374,12.88570784,77.64191648,3.68
152282090703,0.2592636,-1.7194229,8.706152,0.16777344,0.03876648,-0.11003723,12.88570784,77.64191648,3.68
152282090724,0.36873168,-1.4676971,10.558075,-0.03050232,-0.13543549,-0.27020568,12.88570784,77.64191648,3.68
152282090746,-1.2196213,-1.0143753,9.931036,-0.020120239,-0.21888275,-0.082185365,12.88573724,77.6418987,3.68
152282090767,-1.3494339,-1.225064,9.5577545,0.028131103,-0.11454773,0.24387665,12.88573724,77.6418987,3.68
152282090788,-1.2619781,-0.7571472,10.126768,-0.014382934,0.06772308,0.3523697,12.88573724,77.6418987,3.68
152282090810,0.21499482,-0.9766876,9.681108,0.007971192,0.20845795,0.26489106,12.88573724,77.6418987,3.68
152282090831,0.68733674,-1.3620529,9.760188,0.015306091,0.16924134,-0.119688414,12.88576697,77.64188388,3.59
152282090852,-0.23748627,-0.6777054,10.043259,0.05268707,0.0030960082,-0.22133788,12.88576697,77.64188388,3.59
152282090873,-0.5621948,-0.9612549,9.967646,-0.0033859252,-0.1146698,-0.21205139,12.88576697,77.64188388,3.59
152282090895,-1.035733,-0.6578461,9.623799,-0.032092284,-0.09291992,0.035586547,12.88576697,77.64188388,3.59
152282090916,-0.96059877,-1.1714646,9.501886,-0.041259766,0.06026306,0.22176819,12.88576697,77.64188388,3.59
152282090937,0.45918122,-0.5559082,9.4765215,0.024710083,0.09716034,-7.019043E-4,12.88579869,77.64186818,3.82
152282090958,0.047016907,-1.1735016,9.836283,0.09214783,-0.04173584,-0.20985565,12.88579869,77.64186818,3.82
152282090980,-0.552623,-0.71539307,9.497577,-0.067272946,-0.14900056,-0.12689209,12.88579869,77.64186818,3.82
152282091001,-1.6882569,-0.46641693,10.124257,-0.0020431518,-0.052972414,0.17570648,12.88579869,77.64186818,3.82
152282091022,0.29084626,-0.770549,9.54639,0.036071777,0.06392975,0.167276,12.88579869,77.64186818,3.82
152282091043,-0.2353363,-0.94223326,10.281827,-0.061534118,0.073214725,-0.03466034,12.88583116,77.64185332,3.79
152282091065,-0.20746002,-0.47539672,9.451157,-0.009129333,-0.010342407,-0.057260133,12.88583116,77.64185332,3.79
152282091086,-0.831987,-1.1488556,9.8055315,0.009072876,0.015548706,-0.017678833,12.88583116,77.64185332,3.79
152282091107,-0.23150635,-0.795076,9.411316,-0.061894227,-0.009118652,-0.033187866,12.88583116,77.64185332,3.79
152282091128,-0.42377168,-0.9972687,9.331396,0.10876159,-0.015594482,0.013838196,12.88586369,77.64183602,4.02
152282091150,-0.3036499,-1.4070374,9.701088,0.010786438,0.015187073,-0.018649291,12.88586369,77.64183602,4.02
152282091171,-0.5410202,-0.5583054,9.646767,-0.06287384,0.0335083,0.046211243,12.88586369,77.64183602,4.02
152282091208,-0.554657,-0.9845856,9.775744,0.033143617,0.047436524,-0.02879486,12.88586369,77.64183602,4.02
152282091229,-0.34767762,-1.0698913,10.071017,-0.014875794,0.030944824,-0.052368164,12.88586369,77.64183602,4.02
152282091250,-0.24598236,-1.2665802,9.357477,0.049754333,0.019337464,-0.08682404,12.88589645,77.64181465,4.06
152282091272,-0.33057252,-1.0672592,10.338417,-0.052978516,-0.022679139,-0.13740082,12.88589645,77.64181465,4.06
152282091293,-0.38141632,-1.2361923,9.170957,0.011027527,-0.087789916,-0.114434816,12.88589645,77.64181465,4.06
152282091314,-0.638765,-1.1802018,9.928403,0.042669676,-0.12102051,-0.059576415,12.88589645,77.64181465,4.06
152282091336,-1.1040497,-1.4118255,9.696899,-0.03624115,-0.06311645,0.13881072,12.88589645,77.64181465,4.06
152282091357,-0.25424042,-1.4345566,10.039072,-0.0065628053,-3.3416747E-4,0.13892975,12.88592783,77.64179463,3.72
152282091378,-0.2803192,-1.6046875,9.713888,-0.025378417,0.01677246,0.07405853,12.88592783,77.64179463,3.72
152282091399,-0.5641098,-1.6812546,9.374344,-0.028675843,0.0029693604,0.02789154,12.88592783,77.64179463,3.72
152282091421,-0.43441772,-1.2235076,10.900131,0.072718814,0.047439575,0.11645202,12.88592783,77.64179463,3.72
152282091442,0.048214722,-1.7060242,9.890956,0.03607025,0.07468109,0.049879454,12.88592783,77.64179463,3.72
152282091463,-0.25447693,-1.7646453,9.665674,-0.019392395,0.050616454,-0.06654205,12.88595424,77.64177777,3.1
152282091484,0.09786682,-1.467337,9.67536,-0.019880677,-0.034165956,-0.191156,12.88595424,77.64177777,3.1
152282091506,-1.004747,-1.692981,9.859134,-0.039785765,-0.09121094,-0.10282288,12.88595424,77.64177777,3.1
152282091527,-1.3397415,-1.2290131,9.666033,-0.03197174,-0.023287963,0.13148041,12.88595424,77.64177777,3.1
152282091548,0.10396576,-1.2326005,10.027229,0.08848266,0.021655273,0.12500457,12.885977,77.64176104,2.9
152282091569,-0.4133606,-1.6548172,10.105113,0.022875976,0.027033996,0.0027221679,12.885977,77.64176104,2.9
152282091591,-0.14895172,-1.3995011,9.891794,0.00259552,0.0110321045,-0.05114899,12.885977,77.64176104,2.9
152282091612,-0.41743165,-1.4277375,9.552371,-4.5928956E-4,-0.0031356812,-0.052372742,12.885977,77.64176104,2.9
152282091633,-0.62704164,-1.273642,9.864037,-0.007789612,-0.0087539675,-0.03942261,12.885977,77.64176104,2.9
152282091654,-0.46468812,-1.4955734,9.427111,-0.017436218,-0.024015808,-0.014378357,12.88599893,77.64174431,2.76
152282091676,-0.36478883,-1.5138794,9.94647,-5.79834E-4,-0.026708985,-0.008149719,12.88599893,77.64174431,2.76
152282091697,-0.46624297,-1.502034,9.805293,-0.011450196,-0.02902832,0.002357483,12.88599893,77.64174431,2.76
152282091718,-1.0388458,-1.6204789,9.318594,0.008221435,-0.018284608,0.112420656,12.88599893,77.64174431,2.76
152282091739,-0.23150635,-1.6497924,10.229303,-0.015357971,-0.007774353,0.09703064,12.88599893,77.64174431,2.76
152282091761,-0.5563324,-1.8245865,9.803259,-0.011813355,-0.0071640015,0.11486206,12.88601617,77.64172957,2.07
152282091782,-0.48382872,-1.8096313,9.492073,-0.05725708,0.0027282715,0.10692291,12.88601617,77.64172957,2.07
152282091803,-0.6049072,-1.5242889,10.176419,0.050242614,-0.007286072,0.112176515,12.88601617,77.64172957,2.07
152282091824,-0.377948,-1.9790436,10.059054,0.012982178,-0.006555176,0.12415161,12.88601617,77.64172957,2.07
152282091904,-0.27015382,-2.1856644,9.389661,-0.039175414,0.005899048,0.12977143,12.88602961,77.64171741,1.55
152282091926,-0.27505645,-2.0052428,10.137657,0.02715149,0.02080078,0.09226074,12.88602961,77.64171741,1.55
152282091947,-0.32817537,-1.771347,9.661125,0.024705505,0.012858582,0.05402527,12.88602961,77.64171741,1.55
152282091968,-0.4354965,-2.5966308,9.911774,0.012124633,7.736206E-4,0.041685484,12.88602961,77.64171741,1.55
152282091990,-0.3085556,-2.030011,9.719272,-0.014016723,0.0037002563,0.008227539,12.88602961,77.64171741,1.55
152282092010,-0.46528625,-1.1672806,9.638875,0.02935028,0.008706665,-0.0023971559,12.88603512,77.64170984,0.49
152282092032,-0.49184418,-0.9234497,9.842264,0.013226318,0.018725585,7.736206E-4,12.88603512,77.64170984,0.49
152282092053,-0.49076995,-0.97681123,9.943361,0.012736511,0.011639404,-8.117676E-4,12.88603512,77.64170984,0.49
152282092075,-0.60060275,-0.7107254,9.746193,-0.002165222,-0.0097259525,-0.0037475587,12.88603512,77.64170984,0.49
152282092096,-0.42712098,-0.8854019,9.625595,0.0043060305,-0.02695923,-0.0014297485,12.88603512,77.64170984,0.49
152282092117,-0.33798677,-0.79304045,9.94348,-0.004736328,-0.0140014645,-0.0010604858,12.88603476,77.64170862,0.0
152282092138,-0.39673156,-0.85130614,9.476639,-0.0015563965,0.001992798,-0.0016738891,12.88603476,77.64170862,0.0
152282092159,-0.44877473,-0.96412814,9.8830595,3.982544E-4,0.01689453,0.0010116578,12.88603476,77.64170862,0.0
152282092181,-0.42640534,-0.94905394,9.888563,0.006993103,0.04132843,2.883911E-4,12.88603476,77.64170862,0.0
152282092202,-0.6402008,-0.6998413,9.687088,0.003941345,0.038394164,0.0010116578,12.88603045,77.64170913,0.0
152282092223,-0.6530029,-0.87714845,9.789978,-9.1552734E-5,0.042552184,0.0011383056,12.88603045,77.64170913,0.0
152282092244,-0.76295316,-0.852742,9.940605,0.007115173,0.002482605,-0.013768005,12.88603045,77.64170913,0.0
152282092265,-0.8584274,-0.73644865,9.806727,0.0024749755,-0.03391571,-0.0060668946,12.88603045,77.64170913,0.0
152282092287,-0.68721926,-0.83706665,9.699051,0.0038162232,-0.03159027,-0.0027709962,12.88603045,77.64170913,0.0
152282092308,-0.5400604,-0.90622103,9.78053,0.0013748169,-0.010215759,-0.0031326294,12.88602783,77.64170949,0.0
152282092329,-0.55609286,-0.7025925,9.797159,2.746582E-4,-0.009120178,-5.7373045E-4,12.88602783,77.64170949,0.0
152282092350,-0.5741577,-0.8149338,9.741287,-4.5928956E-4,0.013354492,-3.2653808E-4,12.88602783,77.64170949,0.0
152282092372,-0.6089722,-0.81684875,10.0155,-0.0010681152,0.011885071,-0.0017913819,12.88602783,77.64170949,0.0
152282092393,-0.63888854,-0.72317046,9.680986,1.5411378E-4,-0.009118652,-0.0028884888,12.88602783,77.64170949,0.0
152282092415,-0.45212403,-0.9620926,9.901126,-3.3721924E-4,-0.0071609495,-0.0011825562,12.88602714,77.64170711,0.0
152282092436,-0.68470764,-0.7820343,9.71269,2.761841E-4,0.004432678,-4.470825E-4,12.88602714,77.64170711,0.0
152282092457,-0.5474793,-1.0739578,9.86691,-0.0014343262,-0.0067977905,-0.0037460327,12.88602714,77.64170711,0.0
152282092478,-0.64929503,-0.84795684,9.789144,7.659912E-4,-0.02682953,-0.0059432983,12.88602714,77.64170711,0.0
152282092499,-0.57056886,-0.8160111,9.949102,0.0018615723,-0.025613403,-0.005456543,12.88602714,77.64170711,0.0
152282092520,-0.40486756,-0.7577469,9.71628,8.8806154E-4,-0.01619568,-0.0043579102,12.88602744,77.64170363,0.0
152282092542,-0.51780856,-0.8072769,9.683261,3.982544E-4,-0.008016968,-0.0054626465,12.88602744,77.64170363,0.0
152282092563,-0.40391237,-0.8252228,9.973747,6.4544677E-4,-0.002281189,-0.0037445067,12.88602744,77.64170363,0.0
152282092584,-0.63816375,-0.72843474,9.810316,0.0011260987,0.00821228,-0.0036239624,12.88602744,77.64170363,0.0
152282092605,-0.5351547,-1.0402176,9.871333,3.0517578E-5,0.0033294677,-0.006190491,12.88602726,77.64170159,0.0
152282092627,-0.46241608,-0.531987,9.695223,0.0010086059,-0.031713866,-0.005332947,12.88602726,77.64170159,0.0
152282092648,-0.4979477,-0.6684906,9.690677,-2.1362305E-4,-0.030981446,-0.004359436,12.88602726,77.64170159,0.0
152282092669,-0.3230316,-1.0052856,9.800151,-0.007420349,-0.019737244,-8.239746E-5,12.88602726,77.64170159,0.0
152282092690,-0.3929016,-0.5816345,9.865712,0.0018615723,-0.006188965,-0.0030151368,12.88602726,77.64170159,0.0
152282092712,-0.35318452,-0.91614836,9.69738,3.9520263E-4,-0.008628845,-0.00178833,12.8860277,77.64169944,0.0
152282092733,-0.28917235,-0.8663788,9.879713,2.7313232E-4,0.0035812377,-5.6762696E-4,12.8860277,77.64169944,0.0
152282092755,-0.36730042,-0.93589175,9.855304,3.5095214E-5,0.022390747,-9.3536376E-4,12.8860277,77.64169944,0.0
152282092775,-0.36837465,-0.8203186,9.898615,0.00186615,0.019587707,-4.5013428E-4,12.8860277,77.64169944,0.0
152282092797,-0.35270232,-0.8905487,9.855783,0.0025970459,0.012861634,-9.32312E-4,12.8860277,77.64169944,0.0
152282092818,-0.47342223,-0.7926819,9.867388,1.5258789E-4,0.010783386,-5.7067873E-4,12.88602769,77.64169674,0.0
152282092840,-0.49411926,-0.8263031,9.785792,5.203247E-4,0.011152649,-6.9122313E-4,12.88602769,77.64169674,0.0
152282092860,-0.5158936,-0.7329788,9.880549,0.0013763427,-0.0019180297,-0.0027709962,12.88602769,77.64169674,0.0
152282092882,-0.45511627,-0.7417129,9.773111,-5.79834E-4,-0.004234314,-0.001550293,12.88602769,77.64169674,0.0
152282092903,-0.5288178,-0.90274966,9.850517,5.203247E-4,-5.722046E-4,-0.0011825562,12.88602676,77.64169571,0.0
152282092924,-0.47066957,-0.89425814,9.861404,0.0014938355,-7.93457E-5,-0.0016738891,12.88602676,77.64169571,0.0
152282092945,-0.4618164,-0.9098129,9.800148,8.834839E-4,-0.007041931,-0.002279663,12.88602676,77.64169571,0.0
152282092967,-0.55489653,-0.8371887,9.689241,-2.1820069E-4,-0.0055755614,-0.0020355224,12.88602676,77.64169571,0.0
152282092988,-0.562915,-0.77677155,9.902441,-7.019043E-4,-0.001184082,-0.00105896,12.88602676,77.64169571,0.0
152282093010,-0.5848068,-0.78227234,9.772032,5.203247E-4,-5.7373045E-4,-0.0013031006,12.88602661,77.64169414,0.0
152282093030,-0.45834655,-0.9169876,9.899211,5.187988E-4,6.469727E-4,-0.0014297485,12.88602661,77.64169414,0.0
152282093052,-0.6057434,-0.73908234,9.651796,3.0517578E-5,-4.5166016E-4,-8.1787107E-4,12.88602661,77.64169414,0.0
152282093073,-0.56027985,-0.8566879,9.918234,-6.988525E-4,4.119873E-5,-0.001550293,12.88602661,77.64169414,0.0
152282093095,-0.6385269,-0.7820343,9.565771,-4.5776367E-4,0.003211975,-5.767822E-4,12.88602661,77.64169414,0.0
152282093115,-0.7771896,-1.2080734,9.326368,-9.4299315E-4,0.0018707275,-4.5318605E-4,12.88602649,77.64169296,0.0
152282093137,-0.55693054,-0.77126616,9.83317,5.218506E-4,0.0018707275,-0.002041626,12.88602649,77.64169296,0.0
152282093158,-0.5377884,-0.8071564,9.839989,3.3569337E-5,-5.7373045E-4,-0.0011825562,12.88602649,77.64169296,0.0
152282093179,-0.5398239,-0.82271117,9.831495,2.746582E-4,-0.0021606446,-0.0016708374,12.88602649,77.64169296,0.0
152282093201,-0.54460907,-0.78490293,9.792132,2.746582E-4,-0.0021621704,-0.001550293,12.8860264,77.64169169,0.0
152282093222,-0.5857666,-0.7621719,9.846926,-2.166748E-4,-0.0039932253,-0.001550293,12.8860264,77.64169169,0.0
152282093243,-0.50979155,-0.8014145,9.842143,-2.1209716E-4,-0.0025238036,-0.0015472412,12.8860264,77.64169169,0.0
152282093265,-0.6010788,-0.7811966,9.850878,5.17273E-4,-0.0044769286,-0.0019119263,12.8860264,77.64169169,0.0
152282093285,-0.50739896,-0.74470824,9.849802,2.761841E-4,-0.012045288,-0.0016708374,12.8860264,77.64169169,0.0
152282093307,-0.5139801,-0.74267274,9.859253,6.439209E-4,-0.005455017,-0.0017913819,12.88602631,77.64169114,0.0
152282093328,-0.5454483,-0.9049057,9.6601715,3.9672852E-4,-0.003869629,-0.0014266968,12.88602631,77.64169114,0.0
152282093349,-0.55681,-0.8822937,9.80015,7.6293945E-4,-0.00521698,-0.0016708374,12.88602631,77.64169114,0.0
152282093371,-0.51230466,-0.8245102,9.791174,6.439209E-4,0.003338623,-5.7067873E-4,12.88602631,77.64169114,0.0
152282093392,-0.58803713,-0.8973694,9.780411,6.4086914E-4,0.014573669,3.8146973E-5,12.88602631,77.64169114,0.0
152282093413,-0.5016571,-0.95025176,9.809959,8.8500977E-4,0.011764526,-5.7067873E-4,12.88602631,77.64169114,0.0
152282093434,-0.6412781,-0.83419645,9.807089,1.5716553E-4,0.006629944,-9.414673E-4,12.88602631,77.64169114,0.0
152282093455,-0.6291916,-0.86111754,9.760671,8.865356E-4,0.0049209595,-0.0013031006,12.88602631,77.64169114,0.0
152282093477,-0.6381668,-0.83443755,9.824916,6.439209E-4,0.0034561157,-6.973267E-4,12.88602631,77.64169114,0.0
152282093498,-0.6460632,-0.91208494,9.713766,0.0011276245,0.0066238404,-8.1787107E-4,12.88602631,77.64169114,0.0
152282093520,-0.65479887,-0.8980896,9.808047,1.5258789E-4,0.0033309937,-0.002156067,12.88602652,77.64169118,0.0
152282093540,-0.6251236,-1.0319641,9.855661,-0.0033935546,-0.009239197,-0.0055770874,12.88602652,77.64169118,0.0
152282093562,-0.56554717,-0.6572479,9.99935,-0.00131073,-0.020111084,-0.005703735,12.88602652,77.64169118,0.0
152282093583,-0.91728973,-0.51858675,9.164736,0.00919342,-0.02341156,-0.0031326294,12.88602652,77.64169118,0.0
152282093604,-0.36215514,-0.6651459,9.81989,0.005041504,-0.021087646,-0.0011856079,12.8860263,77.64169108,0.0
152282093625,-0.45272368,-0.72628176,10.047209,-0.0039993287,-0.016563416,-0.007536316,12.8860263,77.64169108,0.0
152282093647,-0.4412384,-0.6515045,9.781962,0.0011306762,-0.03073883,-0.019625854,12.8860263,77.64169108,0.0
152282093668,-0.42030182,-0.8315628,9.81295,7.659912E-4,-0.03855896,-0.023660278,12.8860263,77.64169108,0.0
152282093689,-0.5099106,-0.92273104,9.882822,-0.003024292,-0.053094484,-0.021586608,12.8860263,77.64169108,0.0
152282093710,-0.36299133,-0.8764313,9.75062,0.013224793,-0.055905152,-0.0083908085,12.8860263,77.64169108,0.0
152282093732,-0.031227112,-1.5369705,9.718672,-0.021473695,-0.03342743,0.008592224,12.8860263,77.64169108,0.0
152282093753,0.11425476,-1.3406388,9.83652,-3.326416E-4,-0.0027648925,-4.562378E-4,12.8860263,77.64169108,0.0
152282093774,-0.10959168,-1.259642,9.804698,0.009315491,0.032043457,-5.7373045E-4,12.8860263,77.64169108,0.0
152282093795,-0.27051085,-0.34474334,9.924219,0.020310974,0.04193878,0.004676819,12.8860263,77.64169108,0.0
152282093817,-0.2624939,-0.62554324,9.770839,0.007116699,0.020195007,2.822876E-4,12.88602652,77.64169087,0.0
152282093838,-0.36717987,-0.75547487,9.82683,-0.0043640137,0.011401367,-0.0013000488,12.88602652,77.64169087,0.0
152282093859,-0.28271332,-0.79854125,9.860927,0.002961731,-6.9274905E-4,-0.0019180297,12.88602652,77.64169087,0.0
152282093880,-0.3281784,-0.8022537,9.801229,-8.239746E-4,-3.2653808E-4,-9.414673E-4,12.88602652,77.64169087,0.0
152282093902,-0.29790956,-0.8254639,9.837598,8.834839E-4,0.0029708862,-0.0010620117,12.88602665,77.64169084,0.0
152282093923,-0.3672989,-0.8190033,9.82623,-2.1057129E-4,0.004797363,-6.9122313E-4,12.88602665,77.64169084,0.0
152282093944,-0.29312286,-0.8044052,9.7782545,0.0013717652,0.024346923,0.0022354126,12.88602665,77.64169084,0.0
152282093965,-0.4681595,-0.8623123,9.767609,0.0027175904,0.043405153,5.264282E-4,12.88602665,77.64169084,0.0
152282093987,-0.6479782,-0.9039459,9.786387,0.003692627,0.04499054,0.0016204834,12.88602665,77.64169084,0.0
152282094008,-0.60753936,-0.80345,9.842024,0.0029632568,0.04572296,0.0017471313,12.88602652,77.64169097,0.0
152282094029,-0.7281357,-0.81912386,9.766652,0.0011276245,0.025325011,0.0013824463,12.88602652,77.64169097,0.0
152282094050,-0.81870425,-0.8371887,9.79656,2.746582E-4,0.011766052,-0.0037475587,12.88602652,77.64169097,0.0
152282094072,-0.83569336,-0.87607116,9.794284,3.0517578E-5,-0.023901368,-0.0044815065,12.88602652,77.64169097,0.0
152282094093,-0.62596434,-0.8042862,9.799192,-0.0010681152,-0.040632628,-0.002520752,12.88602652,77.64169097,0.0
152282094114,-0.6229736,-0.8008194,9.773109,3.0517578E-5,-0.03366699,-0.0059509277,12.88602619,77.64169119,0.0
152282094135,-0.50105745,-0.91435546,9.795004,-0.0024093627,-0.018521119,-6.9122313E-4,12.88602619,77.64169119,0.0
152282094157,-0.5565704,-0.90179443,9.824554,6.4086914E-4,0.00357666,-0.0028945922,12.88602619,77.64169119,0.0
152282094178,-0.47437897,-0.7948349,9.838793,-2.1057129E-4,-0.0039901733,-2.0599365E-4,12.88602619,77.64169119,0.0
152282094199,-0.5404221,-0.7924408,9.923261,0.0010116578,0.00186615,-0.0044815065,12.88602619,77.64169119,0.0
152282094220,-0.4748581,-0.70450747,9.781245,8.895874E-4,0.017504882,4.058838E-4,12.88602563,77.64169028,0.0
152282094242,-0.66006166,-0.82235414,9.744995,0.0017379761,0.026913453,4.0283203E-4,12.88602563,77.64169028,0.0
152282094263,-0.72897184,-0.90634,9.870618,0.001739502,0.02483368,2.822876E-4,12.88602563,77.64169028,0.0
152282094284,-0.6835114,-0.76061857,9.854227,2.8991699E-5,0.010050965,-9.414673E-4,12.88602563,77.64169028,0.0
152282094305,-0.9047287,-0.6342758,9.802899,0.0011322021,0.002355957,-0.0011856079,12.88602528,77.64168966,0.0
152282094327,-0.84407043,-0.7432693,9.828384,5.17273E-4,-0.0044784546,-0.0020385743,12.88602528,77.64168966,0.0
152282094348,-0.7252655,-0.7572678,9.785672,-5.79834E-4,-0.008016968,-0.001550293,12.88602528,77.64168966,0.0
152282094369,-0.8248062,-0.7537979,9.749423,0.00186615,-0.0013076782,-0.0016708374,12.88602528,77.64168966,0.0
152282094391,-0.714975,-0.85872346,9.843579,-0.0010635376,-0.0064285276,-0.0016738891,12.88602528,77.64168966,0.0
152282094412,-0.752066,-0.86147463,9.765932,0.0013809204,-0.0041152956,-0.0026443482,12.88602509,77.64168931,0.0
152282094433,-0.72371066,-0.8915054,9.859131,-0.0010681152,-0.0091140745,-0.0014297485,12.88602509,77.64168931,0.0
152282094454,-0.6914078,-0.64205325,9.85985,0.0013717652,-0.0043563843,-0.0016708374,12.88602509,77.64168931,0.0
152282094475,-0.7680969,-0.69732666,9.811397,-4.547119E-4,-0.008506775,-0.0017913819,12.88602509,77.64168931,0.0
152282094497,-0.7465622,-0.70797575,9.751338,6.4086914E-4,-0.01191864,-0.0028945922,12.88602509,77.64168931,0.0
152282094518,-0.5944977,-0.8484329,9.725734,5.187988E-4,-0.002281189,-0.0019180297,12.88602509,77.64168931,0.0
152282094539,-0.6758545,-0.90861356,9.897061,3.982544E-4,0.0024765015,-0.0014297485,12.88602509,77.64168931,0.0
152282094560,-0.6303894,-0.66275024,9.7598295,2.761841E-4,0.002232361,-0.00105896,12.88602509,77.64168931,0.0
152282094582,-0.7779083,-0.63343966,9.70049,2.746582E-4,0.004309082,-3.2958985E-4,12.88602509,77.64168931,0.0
152282094603,-0.7875961,-0.8830093,9.834368,0.0010116578,0.00809784,-9.384155E-4,12.88602509,77.64168931,0.0
152282094624,-0.66389006,-0.831926,9.730878,7.659912E-4,0.0060211183,-2.0599365E-4,12.88602509,77.64168931,0.0
152282094645,-0.8014771,-0.68811494,9.900049,3.0517578E-5,-5.7067873E-4,-0.0020385743,12.88602509,77.64168931,0.0
152282094667,-0.7542175,-0.7365692,9.817136,-2.1514893E-4,-0.0100952145,-0.0017913819,12.88602509,77.64168931,0.0
152282094688,-0.6794418,-0.9789642,9.890597,-9.002686E-5,-0.012409973,-0.0027709962,12.88602509,77.64168931,0.0
152282094709,-0.604071,-0.77282107,9.868225,-2.1362305E-4,-0.017051697,-0.0027709962,12.886025,77.64168925,0.0
152282094730,-0.7593628,-0.67304075,9.819049,0.0010086059,-0.024629211,-0.00410614,12.886025,77.64168925,0.0
152282094752,-0.5441284,-0.76564485,9.740448,-3.326416E-4,-0.023535157,-0.002279663,12.886025,77.64168925,0.0
152282094773,-0.5331238,-0.7450668,9.821689,6.42395E-4,0.0010147095,-6.942749E-4,12.886025,77.64168925,0.0
152282094794,-0.56614226,-0.95096743,9.756479,2.7770997E-4,-0.001550293,-0.001550293,12.886025,77.64168925,0.0
152282094815,-0.571167,-0.7813156,9.866788,5.218506E-4,-0.014242554,-0.0035003661,12.886025,77.64168925,0.0
152282094837,-0.6874603,-0.64851075,9.822762,5.203247E-4,-0.017051697,-0.0020385743,12.886025,77.64168925,0.0
152282094858,-0.47079164,-0.8389832,9.808762,3.0517578E-5,-0.009353638,-0.0024032593,12.886025,77.64168925,0.0
152282094879,-0.53826904,-0.9238083,9.9101,-5.783081E-4,-0.00862732,-0.001550293,12.886025,77.64168925,0.0
152282094900,-0.49411926,-0.6808197,9.802663,5.203247E-4,-0.0017944336,-8.1481936E-4,12.886025,77.64168925,0.0
152282094921,-0.46803436,-1.0173676,9.852551,8.865356E-4,0.010540771,-8.1787107E-4,12.88602496,77.64168914,0.0
152282094943,-0.46648103,-0.8050064,9.847527,0.0013748169,0.012986755,-2.0599365E-4,12.88602496,77.64168914,0.0
152282094964,-0.63206637,-0.76720124,9.871574,0.0022277832,0.012741089,-9.384155E-4,12.88602496,77.64168914,0.0
152282094985,-0.589592,-0.7705475,9.754568,1.5563965E-4,3.6621095E-5,-0.0013061523,12.88602496,77.64168914,0.0
152282095007,-0.5960541,-0.9608978,9.805655,-9.4299315E-4,-0.0059432983,-0.0021591187,12.88602496,77.64168914,0.0
152282095028,-0.60921174,-0.59288025,9.790459,0.0011276245,4.0283203E-4,-0.0011825562,12.88602496,77.64168914,0.0
152282095049,-0.53491974,-0.9023941,9.747625,8.8806154E-4,0.0027236938,-0.0020355224,12.88602496,77.64168914,0.0
152282095070,-0.64845735,-0.69840395,9.665553,2.746582E-4,0.004679871,-0.00105896,12.88602496,77.64168914,0.0
152282095092,-0.57439727,-0.8017731,9.998874,0.0010055542,0.0049209595,-8.1481936E-4,12.88602496,77.64168914,0.0
152282095113,-0.85364074,-0.59108734,9.749662,0.0012512207,-0.0010620117,-0.0017944336,12.88602496,77.64168914,0.0
152282095134,-0.5764328,-0.80130005,9.801944,6.4544677E-4,-0.0016693115,-0.0020355224,12.88602496,77.64168914,0.0
152282095155,-0.67047274,-0.98422545,9.888084,3.2043456E-5,-8.117676E-4,-0.00105896,12.88602496,77.64168914,0.0
152282095177,-0.6434296,-0.6135788,9.794168,7.659912E-4,-0.00582428,-0.0017974854,12.88602496,77.64168914,0.0
152282095198,-0.7073196,-0.6488708,9.716759,2.746582E-4,-0.0063095093,-0.00178833,12.88602496,77.64168914,0.0
152282095219,-0.6250061,-0.881575,9.845973,0.0011306762,-0.0059402464,-0.0037445067,12.8860249,77.641689,0.0
152282095240,-0.5052475,-0.92069703,9.760068,-9.1552734E-5,-0.0076507567,1.586914E-4,12.8860249,77.641689,0.0
152282095262,-0.6958313,-0.6259033,9.805173,1.5258789E-4,-0.0025299073,-0.0016677857,12.8860249,77.641689,0.0
152282095283,-0.6296738,-0.7212585,9.832095,2.7313232E-4,-0.0052124024,-0.0017944336,12.8860249,77.641689,0.0
152282095304,-0.5825348,-0.9259628,9.758036,-9.460449E-5,-0.002774048,-0.0013031006,12.8860249,77.641689,0.0
152282095325,-0.5615967,-0.7424332,9.875763,0.0010040284,0.00773468,-9.384155E-4,12.8860249,77.641689,0.0
152282095347,-0.7777893,-0.6674179,9.718554,7.6293945E-4,-0.0020339966,-3.2958985E-4,12.8860249,77.641689,0.0
152282095368,-0.49292296,-0.93026733,9.752413,0.0016159058,0.0037002563,-0.001550293,12.8860249,77.641689,0.0
152282095389,-0.7051651,-0.6444443,9.767008,0.0011291504,0.008700562,-9.414673E-4,12.8860249,77.641689,0.0
152282095410,-0.63852847,-0.7297516,9.825992,8.8500977E-4,0.0073654177,-6.942749E-4,12.88602489,77.64168888,0.0
152282095431,-0.63661194,-0.92727965,9.94001,0.0014953613,0.0073623657,-0.002279663,12.88602489,77.64168888,0.0
152282095453,-0.6737,-0.68033904,9.728246,-3.3569336E-4,-0.0057022097,-5.7067873E-4,12.88602489,77.64168888,0.0
152282095474,-0.6302719,-0.88719785,9.845494,5.218506E-4,-0.004968262,-0.0025299073,12.88602489,77.64168888,0.0
152282095495,-0.60454714,-0.8766724,9.797636,0.001373291,0.0011383056,-6.9122313E-4,12.88602489,77.64168888,0.0
152282095516,-0.77156985,-0.5489731,9.783163,1.5411378E-4,-0.0071624755,-0.0020385743,12.88602489,77.64168888,0.0
152282095538,-0.665448,-0.71539307,9.84908,7.675171E-4,-0.01277771,-0.002774048,12.88602489,77.64168888,0.0
152282095559,-0.65682983,-0.93038785,9.934865,7.614136E-4,-0.007168579,-0.0016677857,12.88602489,77.64168888,0.0
152282095580,-0.59725034,-0.7223328,9.916202,8.895874E-4,-0.004483032,-0.001550293,12.88602489,77.64168888,0.0
152282095602,-0.7002594,-0.66645813,9.726448,3.9520263E-4,-0.0016769409,-0.0013000488,12.88602489,77.64168888,0.0
152282095623,-0.51134646,-0.88779753,9.787227,0.001864624,-0.0055755614,-0.0020385743,12.88602489,77.64168888,0.0
152282095644,-0.7178482,-0.5884552,9.747271,-9.307861E-5,-0.009483337,-0.0020355224,12.88602489,77.64168888,0.0
152282095665,-0.593898,-0.78705597,9.738652,5.203247E-4,-0.0061828615,-0.0020385743,12.88602489,77.64168888,0.0
152282095687,-0.54030454,-0.9789627,9.918833,8.865356E-4,2.822876E-4,-0.0011856079,12.88602489,77.64168888,0.0
152282095708,-0.5481949,-0.75643003,9.857216,0.0010070801,0.003947449,-0.0013061523,12.88602489,77.64168888,0.0
152282095729,-0.7579285,-0.54933167,9.828862,7.6293945E-4,0.0015029907,-9.384155E-4,12.88602489,77.64168888,0.0
152282095750,-0.6233307,-0.8297699,9.830661,0.0011291504,2.822876E-4,-0.0014266968,12.88602489,77.64168888,0.0
152282095772,-0.62309265,-1.0116241,9.922903,7.644653E-4,-4.5166016E-4,-0.0013031006,12.88602489,77.64168888,0.0
152282095793,-0.57906497,-0.5711075,9.86248,0.0014938355,7.675171E-4,-0.0014236451,12.88602489,77.64168888,0.0
152282095814,-0.71952665,-0.64934844,9.76055,3.982544E-4,4.0893554E-4,-0.0011856079,12.88602489,77.64168888,0.0
152282095835,-0.7746811,-0.7849045,9.754565,3.9978029E-4,-0.0015487671,-0.0013031006,12.88602489,77.64168888,0.0
152282095856,-0.5480774,-0.83539426,9.765096,0.0019866943,-0.0021621704,-0.0015472412,12.88602489,77.64168888,0.0
152282095878,-0.74464875,-0.8038071,9.864879,-9.002686E-5,-8.239746E-5,-0.0014297485,12.88602489,77.64168888,0.0
152282095899,-0.6346985,-0.5895325,9.870857,7.6293945E-4,-3.2958985E-4,-9.384155E-4,12.88602489,77.64168888,0.0
152282095920,-0.6959518,-0.6694504,9.670695,2.746582E-4,-8.392334E-5,-0.00178833,12.88602489,77.64168888,0.0
152282095942,-0.67286223,-0.85154724,9.753487,5.203247E-4,0.0037002563,-5.7373045E-4,12.88602489,77.64168888,0.0
152282095963,-0.6503708,-0.8619553,9.714607,0.0019866943,-0.0055755614,-0.0015472412,12.88602489,77.64168888,0.0
152282095984,-0.7512268,-0.8755951,9.907707,-4.5776367E-4,-0.003742981,-0.001550293,12.88602489,77.64168888,0.0
152282096005,-0.69427794,-0.61537474,9.810918,0.0012512207,-0.0048431396,-0.0017913819,12.88602489,77.64168888,0.0
152282096027,-0.7064835,-0.8417343,9.657776,3.3569337E-5,-0.004600525,-0.0020385743,12.88602489,77.64168888,0.0
152282096049,-0.6251221,-0.7773682,9.919432,3.9520263E-4,3.5095214E-5,-0.0013061523,12.88602489,77.64168888,0.0
152282096069,-0.7639084,-0.66849214,9.819769,0.0016159058,0.0032150268,-9.384155E-4,12.88602489,77.64168888,0.0
152282096090,-0.6503693,-0.7503311,9.802063,0.0011260987,0.0010116578,-8.1481936E-4,12.88602489,77.64168888,0.0
152282096112,-0.6089767,-0.9607773,9.827307,-9.460449E-5,-3.2653808E-4,-0.0019210816,12.88602489,77.64168888,0.0
152282096133,-0.65719146,-0.608078,9.807686,0.0016235352,0.010173035,-4.470825E-4,12.88602489,77.64168888,0.0
152282096154,-0.78018034,-0.69445497,9.589701,5.203247E-4,0.0052902224,4.0283203E-4,12.88602489,77.64168888,0.0
152282096175,-0.70528567,-0.8539368,9.933907,6.42395E-4,-0.01253357,-0.0041152956,12.88602489,77.64168888,0.0
152282096197,-0.7804184,-0.72078097,9.861285,8.8500977E-4,-0.01851654,-0.0026504516,12.88602489,77.64168888,0.0
152282096218,-0.6723831,-0.75463563,9.834009,-5.8135984E-4,-0.013386535,-0.0026504516,12.88602489,77.64168888,0.0
152282096239,-0.6033493,-0.949292,9.813429,1.5563965E-4,-0.016319275,-0.0030151368,12.88602489,77.64168888,0.0
152282096260,-0.6317078,-0.61980283,9.800148,3.9672852E-4,-0.0126571655,-0.0025299073,12.88602489,77.64168888,0.0
152282096281,-0.6296722,-0.66131437,9.678118,3.0517578E-5,-0.014857483,-0.0024032593,12.88602489,77.64168888,0.0
152282096303,-0.503212,-0.91902006,9.879712,-4.5928956E-4,-0.018151855,-0.0021591187,12.88602489,77.64168888,0.0
152282096324,-0.40283203,-0.92261046,9.902443,0.0017410278,-0.016804505,-0.003868103,12.88602489,77.64168888,0.0
152282096345,-0.50022125,-0.6323654,9.785194,-0.0010681152,-0.013143921,-0.001914978,12.88602489,77.64168888,0.0
152282096367,-0.49124756,-0.70618135,9.864639,-7.0037844E-4,-6.9580076E-4,-0.0013000488,12.88602489,77.64168888,0.0
152282096388,-0.46947327,-1.0026535,9.909741,0.002232361,0.0016235352,-9.3536376E-4,12.88602489,77.64168888,0.0
152282096409,-0.49638978,-0.76719666,9.860568,3.3569337E-5,-0.006921387,-0.0022842407,12.88602489,77.64168888,0.0
152282096431,-0.538266,-0.62817687,9.700968,-3.3569336E-4,0.001499939,-0.0010650635,12.88602489,77.64168888,0.0
152282096452,-0.4523651,-0.8478378,9.782562,-0.0046096803,0.014208985,3.9978029E-4,12.88602489,77.64168888,0.0
152282096473,-0.6017944,-0.7758133,9.906149,-9.460449E-5,0.017140198,-5.7373045E-4,12.88602489,77.64168888,0.0
152282096494,-0.4894516,-0.7510468,9.827786,0.0026000976,0.013716126,-0.0011795044,12.88602489,77.64168888,0.0
152282096515,-0.6835098,-0.8039261,9.598791,0.0013717652,0.021661377,-2.029419E-4,12.88602489,77.64168888,0.0
152282096536,-0.69200593,-0.8481949,9.894305,-8.850098E-5,0.010539246,2.8533937E-4,12.88602489,77.64168888,0.0
152282096558,-0.84466857,-0.7022339,9.8398695,0.0017425537,-0.016687011,-0.003868103,12.88602489,77.64168888,0.0
152282096579,-0.5684174,-0.797345,9.869181,-0.0016815185,-0.02010498,-0.002406311,12.88602489,77.64168888,0.0
152282096600,-0.64750063,-1.0280136,9.98703,-5.783081E-4,-0.008020019,-0.0020355224,12.88602489,77.64168888,0.0
152282096621,-0.63338166,-0.6410965,9.802541,0.0045532226,-0.0057022097,-0.0020355224,12.88602489,77.64168888,0.0
152282096643,-0.5070389,-0.98984987,9.771434,0.003941345,-0.011553955,-0.0032623291,12.88602489,77.64168888,0.0
152282096664,-0.53910524,-0.7815536,9.900409,2.8991699E-5,-0.0126571655,-0.0016738891,12.88602489,77.64168888,0.0
152282096685,-0.5875565,-0.6472,9.745593,2.761841E-4,-0.010333252,-0.002282715,12.88602489,77.64168888,0.0
152282096706,-0.4589447,-0.8283371,9.819293,8.8806154E-4,-0.008874511,-0.002282715,12.88602489,77.64168888,0.0
152282096728,-0.47150573,-0.9869782,9.810437,-5.844116E-4,-0.0107040405,-0.001914978,12.88602489,77.64168888,0.0
152282096749,-0.5248688,-0.6445633,9.878993,3.9978029E-4,-0.0048431396,-0.0013031006,12.88602489,77.64168888,0.0
152282096770,-0.55190736,-0.64659727,9.759351,0.0010086059,6.439209E-4,-0.0017944336,12.88602489,77.64168888,0.0
152282096791,-0.52558595,-0.8903076,9.879474,6.42395E-4,0.0011352539,-0.0011795044,12.88602489,77.64168888,0.0
152282096813,-0.41132814,-0.893898,9.807327,0.001498413,0.0033325194,-0.0017974854,12.88602489,77.64168888,0.0
152282096834,-0.5675796,-0.7019943,9.815582,-2.1057129E-4,0.008465576,-8.1481936E-4,12.88602489,77.64168888,0.0
152282096855,-0.519722,-0.62530214,9.852076,0.001499939,0.012615967,-5.7067873E-4,12.88602489,77.64168888,0.0
152282096877,-0.66053927,-0.70474243,9.675962,0.0012527466,0.007002258,-0.0011795044,12.88602489,77.64168888,0.0
152282096898,-0.60885465,-0.899762,9.847649,0.0014968872,-3.2806396E-4,-0.0020324707,12.88602489,77.64168888,0.0
152282096919,-0.50428927,-0.86602175,9.74751,0.0010086059,0.0047943117,-6.942749E-4,12.88602489,77.64168888,0.0
152282096940,-0.64857787,-0.8460434,9.898013,7.659912E-4,0.008091736,-8.1787107E-4,12.88602489,77.64168888,0.0
152282096962,-0.6672379,-0.6524643,9.828624,0.0011322021,0.0076065063,-9.384155E-4,12.88602489,77.64168888,0.0
152282096983,-0.7502716,-0.63774717,9.716998,-9.307861E-5,0.0088272095,-8.2092284E-4,12.88602489,77.64168888,0.0
152282097004,-0.7235901,-0.89653015,9.884377,5.203247E-4,-8.6975095E-5,-0.0026474,12.88602489,77.64168888,0.0
152282097025,-0.64785767,-0.88755643,9.861763,0.0010101318,-0.0100952145,-0.0015472412,12.88602489,77.64168888,0.0
152282097046,-0.719165,-0.59180295,9.784834,3.2043456E-5,-0.0075286864,-0.0017913819,12.88602489,77.64168888,0.0
152282097068,-0.64175874,-0.8010559,9.732912,1.5258789E-4,-0.005332947,-0.001550293,12.88602489,77.64168888,0.0
152282097089,-0.6266815,-0.889592,9.758036,1.5411378E-4,-0.010824585,-0.0026443482,12.88602489,77.64168888,0.0
152282097110,-0.61698914,-0.74028015,9.881386,-4.562378E-4,-0.015216065,-0.0025238036,12.88602495,77.64168895,0.0
152282097132,-0.66185606,-0.7697128,9.688765,1.51062E-4,-0.012780761,-0.0024032593,12.88602495,77.64168895,0.0
152282097153,-0.48203582,-0.8676971,9.756001,0.0012496948,-0.010212707,-0.0024032593,12.88602495,77.64168895,0.0
152282097174,-0.6022751,-0.64205325,9.787827,-5.8288575E-4,-0.015466308,-0.001914978,12.88602495,77.64168895,0.0
152282097195,-0.53719026,-0.77138674,9.798353,-4.547119E-4,-0.008139038,-0.0015472412,12.88602495,77.64168895,0.0
152282097217,-0.5188858,-0.94905394,9.95281,0.0011276245,-0.005456543,-0.0017913819,12.88602495,77.64168895,0.0
152282097238,-0.5179306,-0.7405197,9.892512,-8.850098E-5,-0.003501892,-0.0015472412,12.88602495,77.64168895,0.0
152282097259,-0.57332003,-0.6957718,9.736142,0.0011306762,0.0065093995,-9.384155E-4,12.88602495,77.64168895,0.0
152282097280,-0.4798813,-0.8379059,9.786032,0.0017425537,0.009437561,-5.7373045E-4,12.88602495,77.64168895,0.0
152282097301,-0.54401094,-0.9792053,9.911177,0.0010116578,0.009320068,-0.0013000488,12.88602495,77.64168895,0.0
152282097323,-0.577507,-0.67268217,9.780767,0.0021072389,0.009683227,-0.0017913819,12.88602495,77.64168895,0.0
152282097344,-0.696431,-0.63044894,9.6817045,7.644653E-4,0.01309967,-8.850098E-5,12.88602495,77.64168895,0.0
152282097365,-0.6454651,-0.8574066,9.947667,0.0012496948,0.01775818,-6.942749E-4,12.88602495,77.64168895,0.0
152282097387,-0.8529266,-0.6778275,9.845736,0.001498413,0.008703614,-6.942749E-4,12.88602495,77.64168895,0.0
152282097408,-0.71689147,-0.7730606,9.888326,2.761841E-4,-8.392334E-5,-0.0016738891,12.88602495,77.64168895,0.0
152282097429,-0.7172516,-0.809549,9.789983,5.17273E-4,-0.004600525,-0.0020324707,12.88602495,77.64168895,0.0
152282097450,-0.66137695,-0.95910186,9.925534,0.0011276245,-0.008511352,-0.0025238036,12.88602495,77.64168895,0.0
152282097471,-0.68267363,-0.7290329,9.832809,3.2043456E-5,-0.013389587,-0.002282715,12.88602495,77.64168895,0.0
152282097493,-0.66759795,-0.77928007,9.742601,-9.307861E-5,-0.013151551,-0.0027709962,12.88602495,77.64168895,0.0
152282097514,-0.5602829,-0.84245145,9.709581,7.6293945E-4,-0.01876526,-0.0026474,12.88602495,77.64168895,0.0
152282097535,-0.6770493,-0.7372879,9.884138,-4.5928956E-4,-0.01118927,-0.002406311,12.88602495,77.64168895,0.0
152282097556,-0.5717651,-0.71288145,9.828624,7.659912E-4,-0.0140014645,-0.0019119263,12.88602495,77.64168895,0.0
152282097578,-0.5315674,-1.0490738,9.827307,6.4544677E-4,-0.0057022097,-0.0028915405,12.88602495,77.64168895,0.0
152282097599,-0.5090744,-0.780481,9.881987,-2.1362305E-4,0.004673767,-9.3536376E-4,12.88602495,77.64168895,0.0
152282097620,-0.671669,-0.6911087,9.875404,0.0023498535,0.009443665,-5.7067873E-4,12.88602495,77.64168895,0.0
