timestamp,accx,accy,accz,gyrx,gyry,gyrz,latitude,longitude,speed
152282027279,-0.00993042,-0.75762784,9.6442585,-0.0045425417,-0.01700287,6.149292E-4,12.88208749,77.64076296,0.0
152282027299,-0.0373291,-0.67794496,9.923737,-0.009989929,-0.05993805,-0.0057022097,12.88208749,77.64076296,0.0
152282027320,-0.025723267,-0.8347931,9.6567,-0.0049743652,-0.020111084,-0.0022857666,12.88208749,77.64076296,0.0
152282027342,-0.08398895,-0.4963333,9.808286,0.0034500123,0.022634888,0.0038238526,12.88208749,77.64076296,0.0
152282027363,-0.10851745,-0.65664977,9.791059,0.0032073974,0.032533266,-3.2958985E-4,12.88208749,77.64076296,0.0
152282027384,-0.2020752,-0.8173294,9.838077,0.007115173,0.04547882,0.0054107667,12.88208749,77.64076296,0.0
152282027405,-0.3250656,-0.70701754,9.881267,0.010046387,0.0916626,0.009324646,12.88208754,77.6407631,0.0
152282027427,-0.610051,-0.86530304,9.615662,-0.0032669068,0.07260437,-0.014497375,12.88208754,77.6407631,0.0
152282027448,-1.0608612,0.18718109,9.410479,0.017497253,0.051834106,-0.02598114,12.88208754,77.6407631,0.0
152282027470,-0.79729,0.058325194,10.121147,0.016404724,0.02483673,-0.026593018,12.88208754,77.6407631,0.0
152282027490,-0.5589676,-0.6136978,9.944319,-0.011575317,0.01640625,-0.033924866,12.88208754,77.6407631,0.0
152282027512,-0.94253236,-0.3982254,9.948624,-0.019758606,0.004193115,-0.069596864,12.88208754,77.6407631,0.0
152282027533,-0.43812865,-0.10402832,9.799429,-0.017800903,-0.008880615,-0.10026093,12.88208754,77.6407631,0.0
152282027554,-0.48502654,0.032963563,10.07604,-0.024519349,-0.018519592,-0.21375886,12.88208754,77.6407631,0.0
152282027575,0.0139953615,-0.20691986,10.0235195,-0.09256287,-0.10721588,-0.27118224,12.88208754,77.6407631,0.0
152282027597,-0.26907653,-0.53330076,9.564337,-0.05554657,-0.08999176,-0.32371673,12.88208754,77.6407631,0.0
152282027618,-0.6221344,-0.21158448,10.410919,-0.070329286,-0.027929688,-0.13764802,12.88208755,77.64076325,0.0
152282027640,-0.817746,-0.25345916,9.741406,-0.040275574,0.07859192,0.062828064,12.88208755,77.64076325,0.0
152282027660,0.2585434,0.6169281,10.155006,0.020439148,0.073336795,0.05744934,12.88208755,77.64076325,0.0
152282027682,-0.7476395,0.18945007,11.037359,0.059535217,0.025205994,-0.06238861,12.88208755,77.64076325,0.0
152282027703,0.40522307,0.036190797,8.544752,0.113162234,-0.09988709,-0.13410644,12.88208755,77.64076325,0.0
152282027724,-0.5163727,0.7634918,10.642301,0.084947206,-0.14411315,-0.13752289,12.88208755,77.64076325,0.0
152282027745,-0.6831543,0.29150695,9.457019,-0.021830749,-0.14777526,0.035462953,12.88208755,77.64076325,0.0
152282027767,-0.45691222,0.3552765,10.419172,0.006878662,-0.111003116,0.2231125,12.88208755,77.64076325,0.0
152282027788,-1.3586441,-0.23730774,10.260768,0.0010101318,-0.019866943,0.42139435,12.88208755,77.64076325,0.0
152282027809,-0.25878447,-0.4597229,9.518394,0.024224853,0.08213196,0.52047575,12.88208755,77.64076325,0.0
152282027830,0.24969025,-0.581279,9.938574,0.0446228,0.14700623,0.2910385,12.88208755,77.64076325,0.0
152282027852,0.40366822,-0.66562045,9.809601,-0.01853485,0.120982364,0.07687225,12.88208755,77.64076325,0.0
152282027873,0.7625931,-0.4893921,10.333867,-0.0061965943,8.9569093E-4,-0.13776703,12.88208755,77.64076325,0.0
152282027894,-0.6733414,-0.6688553,9.5089445,0.015428161,-0.115644835,-0.15743867,12.88208755,77.64076325,0.0
152282027916,-0.90664214,-0.76492614,9.491951,-0.0024124146,-0.09793091,0.11779785,12.88208755,77.64076325,0.0
152282027938,-0.1951355,-1.1573486,9.5099,-0.1016037,-0.012173462,0.22896881,12.88208755,77.64076325,0.0
152282027960,-1.23685,-1.1415558,10.9683275,0.08323975,-0.0064346315,0.19965057,12.88208755,77.64076325,0.0
152282027980,-0.8940811,-1.1641693,8.97917,0.11230926,0.03387604,0.26330262,12.88208755,77.64076325,0.0
152282028002,-0.09535523,-1.064386,11.692156,-0.030744934,0.097407535,0.27258605,12.88208755,77.64076325,0.0
152282028023,-0.38727722,-0.21242371,8.525851,-0.012059021,0.15641327,0.13270111,12.88208755,77.64076325,0.0
152282028044,0.37710875,-0.7246078,11.770277,0.008586121,0.16460113,0.038267516,12.88208755,77.64076325,0.0
152282028065,0.4908844,-0.7799988,9.9657345,-0.030873109,0.08628388,-0.32652742,12.88208755,77.64076325,0.0
152282028086,-0.37064973,-1.1852219,9.350301,0.113529965,-0.120162964,-0.3970169,12.88208755,77.64076325,0.0
152282028108,-0.7350769,-1.3120453,10.251796,-0.057865907,-0.11759949,-0.13556977,12.88206893,77.64077747,2.84
152282028129,-0.3870407,-0.86733854,9.08709,0.0052902224,-0.07276459,0.0051651,12.88206893,77.64077747,2.84
152282028150,-0.6160339,-1.3948349,10.303244,-0.013278198,-0.03990326,0.027398681,12.88206893,77.64077747,2.84
152282028171,-0.4712677,-1.2327194,11.663321,-0.15328674,-0.07325439,0.03729248,12.88206893,77.64077747,2.84
152282028193,-0.73328096,-0.87403566,10.203341,0.13344117,-0.03000946,0.08969879,12.88206893,77.64077747,2.84
152282028214,-0.76127625,-0.64958954,10.240549,0.12171326,0.11768494,0.24546966,12.8820395,77.640794,2.94
152282028235,-0.41706848,0.008673096,10.006053,-0.017796326,0.06442261,0.14357452,12.8820395,77.640794,2.94
152282028257,-0.3261444,-0.57421875,9.580729,0.010421753,0.12538299,0.050602723,12.8820395,77.640794,2.94
152282028278,0.26081544,-1.0239471,9.972551,-0.058966063,0.15861054,-0.08682404,12.8820395,77.640794,2.94
152282028299,1.0640885,-1.3797576,9.711855,-0.023057556,0.0700409,-0.3614685,12.8820395,77.640794,2.94
152282028320,0.11892243,-1.4009384,9.934984,0.077122495,-0.15962982,-0.6192505,12.88201451,77.64080747,2.57
152282028341,-1.481636,-1.3007965,9.447447,-0.017431641,-0.20862122,-0.28010255,12.88201451,77.64080747,2.57
152282028363,-1.098787,-3.1268814,10.599589,-0.27398986,-0.12261047,0.079071045,12.88201451,77.64080747,2.57
152282028384,-0.75984037,-0.501355,7.9111357,0.26685944,0.0013809204,0.20026092,12.88201451,77.64080747,2.57
152282028405,-0.92507017,1.6118653,9.077517,0.28847963,0.035464477,0.26990205,12.88198978,77.64081899,2.46
152282028426,-0.39421996,-2.3825927,12.6734495,-0.2609207,-0.0024032593,0.1061966,12.88198978,77.64081899,2.46
152282028448,-0.8120071,1.1599792,7.8592086,-0.03808136,0.08201142,0.1066864,12.88198978,77.64081899,2.46
152282028469,0.029312134,0.03666992,10.998833,0.16911773,0.089955136,0.08493042,12.88198978,77.64081899,2.46
152282028490,0.633139,0.4971695,9.167845,-0.16329804,0.10216675,-0.0675232,12.88198978,77.64081899,2.46
152282028511,-0.76606447,0.35647124,10.830379,0.09667053,-0.06848602,-0.24833679,12.88196464,77.64082989,2.5
152282028533,-0.38069612,-0.6422943,7.937697,-0.038809203,-0.07227631,-0.08767853,12.88196464,77.64082989,2.5
152282028554,0.02512207,-0.36460724,9.0095625,0.10082092,-0.1529068,-0.07973938,12.88196464,77.64082989,2.5
152282028575,-1.0918458,-0.60604095,10.716601,0.04682312,-0.18967743,0.014082337,12.88196464,77.64082989,2.5
152282028596,-0.99720764,-0.079380795,10.209203,0.014941406,-0.07129822,0.30752715,12.88196464,77.64082989,2.5
152282028618,-0.01663208,-0.88875276,9.029419,-0.1002594,0.055621337,0.37044984,12.88193649,77.6408442,3.11
152282028640,-0.06711884,-0.5129608,11.595006,-0.115290835,0.130513,0.26635742,12.88193649,77.6408442,3.11
152282028660,-0.1056427,0.19304505,10.106194,0.19379425,0.11927643,0.13392487,12.88193649,77.6408442,3.11
152282028681,0.46372527,-1.2154938,9.673929,-0.04565277,0.12867889,-0.017182922,12.88193649,77.6408442,3.11
152282028703,-0.43728942,0.20691833,10.343918,7.736206E-4,0.040960692,-0.10636902,12.88193649,77.6408442,3.11
152282028724,-0.42365113,-0.42944947,9.15002,0.04169464,0.06307678,-0.069963075,12.88190445,77.64086419,3.61
152282028745,0.55142516,-1.6950134,7.243178,-0.06580353,0.027888488,-0.11467896,12.88190445,77.64086419,3.61
152282028766,-0.15924072,-1.233319,9.654187,0.035095215,-0.0041091917,-0.14925079,12.88190445,77.64086419,3.61
152282028788,0.13483429,-1.3883759,8.566887,0.0038238526,-0.0034988404,-0.10600586,12.88190445,77.64086419,3.61
152282028809,-0.38500825,-0.4503891,9.422322,-0.00851593,-0.0076553347,-0.08438263,12.88186976,77.64088809,3.88
152282028830,-0.2875,-0.46845093,10.474207,-0.08474579,0.011401367,-0.08926849,12.88186976,77.64088809,3.88
152282028851,-0.33858642,-0.28623962,10.784795,0.11817169,-0.05126648,-0.10417481,12.88186976,77.64088809,3.88
152282028873,-0.79609376,-0.6662216,11.814547,-0.009490967,-0.046377562,-0.070574954,12.88186976,77.64088809,3.88
152282028894,-0.5227127,-0.06622009,9.305075,-0.020606995,-0.02438202,0.010540771,12.88186976,77.64088809,3.88
152282028915,-0.20853576,-1.5826721,8.377138,0.0585495,-0.03184204,-0.03050537,12.88183041,77.6409109,4.26
152282028912,-0.4222168,-0.33768615,10.179172,-0.06592865,-0.032693483,-0.0064346315,12.88183041,77.6409109,4.26
152282028933,-0.43298188,-0.8645874,10.481624,0.004434204,-0.026341248,0.029475402,12.88183041,77.6409109,4.26
152282028954,-0.4305908,-1.2912261,9.756,0.009686279,-0.025245667,0.0050476072,12.88183041,77.6409109,4.26
152282028975,-0.6715485,-1.1461014,10.038713,0.023002625,-0.0730072,0.019215394,12.88183041,77.6409109,4.26
152282028997,-0.49531403,-1.0934601,9.614229,0.008345032,-0.057002258,0.07650604,12.88178875,77.6409329,4.49
152282029018,-0.49483642,-1.2062836,10.593371,-0.029039001,-0.004722595,0.12121582,12.88178875,77.6409329,4.49
152282029039,-0.24023895,-0.98853606,9.420407,0.050976563,0.017633056,0.12720338,12.88178875,77.6409329,4.49
152282029060,-0.3860855,-1.3083359,10.328723,-0.004237366,0.06014099,0.08297882,12.88178875,77.6409329,4.49
152282029082,-0.07980194,-1.1025528,9.012552,0.051097106,0.039131165,0.06257782,12.88174998,77.64095468,3.89
152282029103,-0.21714935,-1.0606781,10.091594,0.07077484,0.05696716,0.005899048,12.88174998,77.64095468,3.89
152282029124,0.011364746,-1.4965317,9.620687,-0.11956177,0.05329895,-0.0035079955,12.88174998,77.64095468,3.89
152282029145,-0.2580673,-1.3387253,9.594727,-0.14167175,0.019709777,-0.08523712,12.88174998,77.64095468,3.89
152282029167,-0.38034058,-1.1372483,10.092672,0.07210998,-0.043322753,-0.10539398,12.88174998,77.64095468,3.89
152282029188,-0.66772,-1.3238876,10.097577,0.05757141,-0.0512619,-0.047973633,12.88171658,77.64097505,3.57
152282029209,-0.35689086,-1.3401581,10.252274,0.027276611,-0.023773193,0.03716278,12.88171658,77.64097505,3.57
152282029230,-0.26273194,-2.6787047,8.630417,-0.25493163,0.032289125,0.06135864,12.88171658,77.64097505,3.57
152282029252,-0.12622222,-0.69601136,11.508745,0.10437012,0.051715087,0.04779663,12.88171658,77.64097505,3.57
152282029274,-0.49041137,-1.39962,8.227824,0.29105225,-0.010835266,0.04950409,12.88171658,77.64097505,3.57
152282029294,-0.3069992,-0.05497589,10.963181,-0.11345215,0.052081298,-0.092689514,12.88168701,77.64099419,3.19
152282029315,0.11162262,-0.13405761,7.8366,-0.019508362,0.009568786,-0.04565277,12.88168701,77.64099419,3.19
152282029337,-0.3260208,-0.6116638,11.397478,0.04597473,0.0751709,-0.09708862,12.88168701,77.64099419,3.19
152282029358,0.2766098,-0.27355957,8.734507,-0.12823792,0.00614624,-0.121398926,12.88168701,77.64099419,3.19
152282029379,0.025480652,-0.363887,10.109064,0.11560669,-0.088645935,-0.2324524,12.8816605,77.64101054,2.99
152282029400,-0.5755951,-0.41485444,8.748384,-0.025619507,-0.1436264,-0.11834411,12.8816605,77.64101054,2.99
152282029422,-1.0194657,-0.5226532,11.501325,-0.052613832,-0.13421936,0.043644715,12.8816605,77.64101054,2.99
152282029443,-0.20506592,-0.95407563,8.841105,-0.028433228,-0.06323242,0.18535766,12.8816605,77.64101054,2.99
152282029464,-0.48825684,0.10295258,10.216858,0.08677216,-0.076553345,0.1700882,12.8816605,77.64101054,2.99
152282029485,-1.096991,-0.13764802,12.7116165,-0.031970214,-0.0035049438,0.2005066,12.88163452,77.64102604,3.17
152282029506,-0.6631729,0.07662964,9.275762,0.1280655,0.05293579,0.2598816,12.88163452,77.64102604,3.17
152282029528,-0.11354065,-0.5316254,9.616381,-0.07228241,0.15421295,0.17570496,12.88163452,77.64102604,3.17
152282029549,0.3766281,-1.0097122,7.130835,-0.06495361,0.12562561,0.059283447,12.88163452,77.64102604,3.17
152282029570,0.031221008,-1.5114883,9.103838,0.084573366,0.051101685,-0.075582884,12.88163452,77.64102604,3.17
152282029592,0.024765015,-1.5876968,9.122264,-0.011203003,0.043159485,-0.05908966,12.88160452,77.64104879,3.99
152282029613,-0.16055755,-0.18753815,10.316043,-0.008270264,-0.011561585,-0.10954895,12.88160452,77.64104879,3.99
152282029634,-0.7261063,-0.23240204,10.886371,0.060261536,-0.074353024,-0.07460785,12.88160452,77.64104879,3.99
152282029655,-0.28115845,-1.1995804,8.735585,-0.056523133,-0.0783844,-0.022685241,12.88160452,77.64104879,3.99
152282029677,-0.46743774,-0.27762452,10.28948,-0.04980774,-0.07532959,0.057691954,12.88160452,77.64104879,3.99
152282029698,-0.23342133,-1.1976669,8.404538,0.07760773,-0.07411041,0.047677614,12.88157506,77.64107118,3.31
152282029719,-1.0001999,-0.5766083,8.884656,-0.0030166626,-0.03403473,0.15591583,12.88157506,77.64107118,3.31
152282029740,-0.3230316,-0.8370651,10.691236,-0.10196686,0.07174835,0.18987732,12.88157506,77.64107118,3.31
152282029762,-0.2671585,-0.6524643,9.167725,0.21273346,0.114997864,0.14394379,12.88157506,77.64107118,3.31
152282029783,-0.22062072,-1.3051026,11.340413,-0.1564621,0.11523895,-0.019752502,12.88154375,77.64109516,4.22
152282029804,-0.5065613,-0.5271988,9.113528,-0.12689361,0.037294008,-0.039053343,12.88154375,77.64109516,4.22
152282029825,-0.34013978,-0.75044554,11.058416,0.24571839,0.039500427,-0.053474426,12.88154375,77.64109516,4.22
152282029847,-0.8158325,-0.875473,11.807608,-0.056893922,0.103637695,-0.050538637,12.88154375,77.64109516,4.22
152282029868,-0.5480789,0.076870725,11.409441,0.065518185,0.0559906,-0.11443176,12.88154375,77.64109516,4.22
152282029889,-0.65216523,-0.6335602,12.5642185,0.0441391,0.06124115,-0.16916199,12.88150926,77.64112087,4.45
152282029910,-0.32530516,-0.22594146,11.753893,-0.023910522,-0.046740722,-0.23758698,12.88150926,77.64112087,4.45
152282029931,-0.8560379,-0.5551956,11.605771,0.046211243,-0.12725373,-0.22182313,12.88150926,77.64112087,4.45
152282029953,-0.2577057,-0.40719908,10.053072,-0.009004211,-0.14997406,-0.062265016,12.88150926,77.64112087,4.45
152282029974,-0.2365326,-0.38207245,10.026271,0.026177978,-0.13482971,-0.044430543,12.88150926,77.64112087,4.45
152282029995,-0.63039094,-1.5546738,9.235921,-0.06507263,-0.11124726,0.067099,12.88147187,77.64114104,4.59
152282030016,-0.44135588,-1.6556518,8.413389,-0.0042404174,-0.0122970585,0.18975678,12.88147187,77.64114104,4.59
152282030038,-0.042834472,-0.3403183,9.394447,0.020559693,0.04022827,0.10276947,12.88147187,77.64114104,4.59
152282030059,-0.7560135,-0.22570343,11.527168,-0.026231384,0.0076171877,0.043276977,12.88147187,77.64114104,4.59
152282030080,0.16151276,-0.48699647,9.9244585,0.008830261,-0.030862426,0.05610199,12.8814187,77.64116135,5.02
152282030101,-0.84646606,-1.0596008,9.902441,-0.024031067,0.026301574,0.14332886,12.8814187,77.64116135,5.02
152282030123,-0.3190872,-1.8864396,8.511136,0.0044387816,0.09129791,0.13319091,12.8814187,77.64116135,5.02
152282030144,-0.23114929,-1.7194214,9.156003,-0.006806946,0.115608215,0.049871825,12.8814187,77.64116135,5.02
152282030165,-0.31860504,-0.81936187,10.555323,5.187988E-4,0.10070343,-0.018043518,12.8814187,77.64116135,5.02
152282030186,-0.19250336,-1.1666794,9.776583,0.029595947,0.06405182,-0.08034821,12.88137248,77.64119929,5.15
152282030208,-0.3894348,-1.041777,10.0254345,0.027763367,0.04938965,-0.08718872,12.88137248,77.64119929,5.15
152282030229,0.038165282,-1.3447052,10.051275,0.013102722,0.028744508,-0.13153991,12.88137248,77.64119929,5.15
152282030250,-0.18652496,-1.3654038,9.968962,0.012980652,-0.07716217,-0.20863494,12.88137248,77.64119929,5.15
152282030271,-0.98811644,-1.076471,9.706591,0.014077758,-0.14741059,-0.12506866,12.88137248,77.64119929,5.15
152282030293,-0.77898407,-1.3347763,10.107866,-0.020005798,-0.07545166,0.07724152,12.88133234,77.64122356,5.06
152282030314,-0.1651062,-1.4024948,9.40665,-0.035635374,-0.027192688,0.04058838,12.88133234,77.64122356,5.06
152282030335,-0.33092958,-1.4865997,9.068665,-0.03428955,-0.06934357,-0.014376831,12.88133234,77.64122356,5.06
152282030356,-0.7798233,-1.1136795,9.831854,-0.029162597,-0.042956542,0.06868591,12.88133234,77.64122356,5.06
152282030378,-0.30939484,-1.2719666,9.84358,0.022758484,0.007987976,0.16361389,12.88133234,77.64122356,5.06
152282030399,-0.116290286,-2.3129623,10.595642,-0.09195709,0.06454468,0.08176117,12.88129858,77.64124033,4.49
152282030420,-0.24873658,-1.3310654,8.744797,0.3153595,0.012745666,0.027275085,12.88129858,77.64124033,4.49
152282030442,-0.18101959,-1.2948166,10.402661,-0.16696167,0.12563019,0.023852538,12.88129858,77.64124033,4.49
152282030463,-0.21990052,-0.73381805,9.042699,0.03668518,0.056965638,-0.027082825,12.88129858,77.64124033,4.49
152282030484,-0.044151306,-1.1498108,10.705113,0.046946716,0.105221555,-0.004118347,12.8812582,77.64125626,4.15
152282030505,0.8756546,-1.0529007,9.84406,-0.054086305,0.005659485,-0.28743133,12.8812582,77.64125626,4.15
152282030527,-0.52402955,-1.051944,10.141843,0.005899048,-0.25614625,-0.34753877,12.8812582,77.64125626,4.15
152282030548,-1.8472595,-0.94522554,9.508703,-0.01889801,-0.29658508,-0.002532959,12.8812582,77.64125626,4.15
152282030569,-1.8905685,-0.8242661,9.966093,0.018730164,-0.12297821,0.37691957,12.8812582,77.64125626,4.15
152282030590,-0.44111937,-0.77030945,9.55261,2.7770997E-4,-0.009118652,0.42200622,12.88122046,77.64127108,4.0
152282030612,-0.7897522,-1.0639083,9.898375,0.06954346,0.17351684,0.4165039,12.88122046,77.64127108,4.0
152282030633,0.23090363,-0.7537979,10.030217,0.008706665,0.29740295,0.24534455,12.88122046,77.64127108,4.0
152282030654,0.64234924,-0.649469,9.757677,0.042424012,0.26893768,-0.11553345,12.88122046,77.64127108,4.0
152282030675,-0.059942625,-0.57888186,10.2401905,0.031793214,0.20051575,-0.25567168,12.88122046,77.64127108,4.0
152282030697,0.38990936,-0.7454239,9.211513,0.02984314,0.113650516,-0.33446503,12.88119415,77.6413017,3.81
152282030718,0.30615845,-0.5309097,11.368406,0.12941131,-0.031723022,-0.45822755,12.88119415,77.6413017,3.81
152282030739,0.021414185,-1.5934417,7.59014,0.027279664,-0.19456634,-0.43073884,12.88119415,77.6413017,3.81
152282030760,-1.3661835,0.04109802,10.549223,-0.1008728,-0.23439941,-0.16501465,12.88119415,77.6413017,3.81
152282030781,-0.9705307,-0.035592653,11.335024,0.070646666,-0.16329041,0.009815979,12.88116661,77.6413228,4.01
152282030803,-0.901857,-0.36616212,11.945078,0.059286498,-0.12358399,0.034362793,12.88116661,77.6413228,4.01
152282030824,-0.12897643,-0.10618286,8.483023,-0.0046066283,-0.11344757,0.093241885,12.88116661,77.6413228,4.01
152282030845,-0.164151,-0.41222382,10.50986,-0.2467392,-0.09353332,0.11474457,12.88116661,77.6413228,4.01
152282030867,-0.48299408,-0.9941559,8.152212,0.07333527,-0.07875061,0.18242797,12.88116661,77.6413228,4.01
152282030888,-0.60825807,-0.4971695,11.949621,0.22067566,-0.046865843,0.21822357,12.88112925,77.64134684,4.56
152282030909,-0.91621244,-1.3838272,8.65291,-0.16366425,0.07285003,0.26672974,12.88112925,77.64134684,4.56
152282030930,-0.402594,-0.41605073,10.129041,0.06772003,0.19575348,0.29837188,12.88112925,77.64134684,4.56
152282030952,-0.0071792603,-0.76552427,10.726294,0.14089355,0.22446594,0.050364684,12.88112925,77.64134684,4.56
152282030973,0.42986757,-1.4241486,8.291235,-0.10734405,0.15299377,-0.115048215,12.88112925,77.64134684,4.56
152282030994,-0.7995636,-0.19352111,10.601985,0.0074905395,0.031430054,-0.15548095,12.88109093,77.64136522,4.98
152282031015,-0.1268219,-1.1584259,9.862482,0.03582611,0.07822571,-0.037467957,12.88109093,77.64136522,4.98
152282031036,0.06962738,-1.3795227,10.0692215,-0.048587035,0.10351257,-0.13154145,12.88109093,77.64136522,4.98
152282031058,-0.09571381,-0.16265258,10.739331,0.07235718,0.009695435,-0.2298874,12.88109093,77.64136522,4.98
152282031079,-0.5180481,-1.7793624,9.349939,-0.04247589,-0.056518555,-0.22525024,12.88104878,77.64139231,5.23
152282031100,-0.2377243,-0.7371658,9.4007845,-0.0039993287,-0.16060486,-0.18896179,12.88104878,77.64139231,5.23
152282031121,-0.8828354,-1.1490921,10.863998,0.06600495,-0.122485355,-0.03612671,12.88104878,77.64139231,5.23
152282031143,0.01854248,-1.5634079,9.212352,0.04536133,-0.106358334,-0.010830688,12.88104878,77.64139231,5.23
152282031164,-0.52498627,-1.3445861,10.086573,0.006022644,-0.082904056,0.023606872,12.88104878,77.64139231,5.23
152282031185,-0.49244386,-1.5033493,9.728726,-0.13947448,-0.054074097,0.077113345,12.88100632,77.64140933,5.13
152282031207,-0.65778655,-0.8498703,9.71568,0.07956543,-0.02817688,0.111442566,12.88100632,77.64140933,5.13
152282031227,-0.26213378,-1.6322021,9.287605,-0.010591125,0.024104308,0.09959259,12.88100632,77.64140933,5.13
152282031249,-0.3214798,-1.4637467,8.564136,-0.17319337,0.055500794,0.10203552,12.88100632,77.64140933,5.13
152282031270,0.32709807,-1.3390824,11.112732,0.07052765,0.039498903,0.051948547,12.88100632,77.64140933,5.13
152282031292,0.0978653,-1.5131592,9.875282,0.11951752,0.034617614,0.037661742,12.88097362,77.64143374,4.87
152282031312,-0.68423,-0.66669923,10.37323,-0.0192688,0.021661377,0.005900574,12.88097362,77.64143374,4.87
152282031334,-0.0108886715,-1.1651245,9.842621,-0.010350036,0.03901062,0.016896058,12.88097362,77.64143374,4.87
152282031355,-0.030151367,-0.6562897,9.884618,0.028256226,0.036808778,-0.017552186,12.88097362,77.64143374,4.87
152282031377,-0.046061706,-1.0983627,9.877558,-0.0402771,0.015672302,-0.04980316,12.88097362,77.64143374,4.87
152282031397,-0.45092773,-0.57098997,10.166132,-0.0024093627,0.02348938,-0.024761964,12.88092907,77.64144564,4.64
152282031419,0.22133331,-0.9050247,9.795723,0.0381485,0.004312134,-0.06947784,12.88092907,77.64144564,4.64
152282031440,-0.08734131,-1.0615158,10.0577345,0.009806824,-0.047109984,-0.10637207,12.88092907,77.64144564,4.64
152282031461,-0.24167633,-1.5229706,9.901723,-0.011207581,-0.09365692,-0.09024658,12.88092907,77.64144564,4.64
152282031482,-0.43346405,-1.3181458,9.518038,0.015055847,-0.10819397,0.0098052975,12.88089645,77.64147252,4.58
152282031504,-0.3860855,-1.2594025,9.944077,-0.009742737,-0.102207944,0.058547974,12.88089645,77.64147252,4.58
152282031525,-0.59114534,-1.4479554,9.537537,-0.007661438,-0.05932312,0.17399292,12.88089645,77.64147252,4.58
152282031547,-0.531926,-1.276152,10.011076,0.041445922,0.013845826,0.19989777,12.88089645,77.64147252,4.58
152282031567,-0.44973144,-1.5449829,9.610399,0.0036956787,0.056726076,0.17753753,12.88089645,77.64147252,4.58
152282031601,-0.14045867,-1.1029098,9.895981,-0.011206055,0.12501678,0.17301941,12.88085926,77.64149701,4.53
152282031622,0.08637848,-1.2348754,10.453511,-0.0011856079,0.10620117,-0.01010437,12.88085926,77.64149701,4.53
152282031644,-0.84933627,-1.0748001,8.932157,0.0011352539,0.11035309,0.04559784,12.88085926,77.64149701,4.53
152282031664,-0.28989106,-1.2151337,10.014905,0.012254333,0.1700943,-0.024153138,12.88085926,77.64149701,4.53
152282031686,0.15026855,-1.644049,8.902124,0.022390747,0.15018158,-0.14900818,12.88085926,77.64149701,4.53
152282031707,-0.09966431,-1.8270996,9.91333,0.0030883788,0.09166107,-0.29109803,12.88082688,77.64151893,4.11
152282031728,-0.40618286,-0.94031984,10.680112,0.03289642,0.060386658,-0.2792465,12.88082688,77.64151893,4.11
152282031749,-0.45583495,-1.6730026,9.073332,0.16911468,0.09129639,-0.2642166,12.88082688,77.64151893,4.11
152282031771,0.13244018,-1.3555954,10.6651535,0.030329894,0.10669098,-0.33630067,12.88082688,77.64151893,4.11
152282031792,-0.10683899,-1.1395203,9.989901,0.12500763,0.03375244,-0.4695877,12.88079507,77.64153976,3.78
152282031814,-0.48084107,-1.7840286,9.356401,-0.040029906,0.012736511,-0.45749664,12.88079507,77.64153976,3.78
152282031834,-0.47820586,-1.3923233,8.361102,-0.14949493,-0.012542725,-0.427565,12.88079507,77.64153976,3.78
152282031856,-0.66915435,-0.77653044,10.323936,0.2949539,-0.016940307,-0.38406983,12.88079507,77.64153976,3.78
152282031877,-0.6955948,-1.2304474,8.39401,0.088731386,0.066986084,-0.2684967,12.88079507,77.64153976,3.78
152282031898,-0.05168762,-0.9553925,10.412593,-0.110644534,0.13381347,-0.3383774,12.88076528,77.64154957,3.56
152282031920,-0.30508423,-0.9252411,9.219172,0.14297028,0.08799744,-0.4302536,12.88076528,77.64154957,3.56
152282031941,-0.17635345,-1.241095,10.745076,0.11425934,0.101802066,-0.46495208,12.88076528,77.64154957,3.56
152282031962,0.046658326,-0.7657608,9.858655,0.1445572,-0.019746399,-0.5802795,12.88076528,77.64154957,3.56
152282031983,-0.7060013,-1.3673203,10.371794,0.08299103,-0.14142457,-0.57502747,12.88076528,77.64154957,3.56
152282032004,-1.0517654,-1.0853256,8.7115345,-0.056768797,-0.20006561,-0.35328674,12.88073087,77.64154129,3.4
152282032026,-1.1429336,-0.95335996,9.725256,0.041571043,-0.041371156,-0.06813049,12.88073087,77.64154129,3.4
152282032047,-0.1966919,-1.1335404,10.0698185,0.025079345,0.0724823,-0.08926849,12.88073087,77.64154129,3.4
152282032069,-0.14811707,-1.136171,10.161346,0.090559386,0.12757874,-0.18932495,12.88073087,77.64154129,3.4
152282032089,0.16091613,-0.89748687,10.477318,0.00809784,0.048779298,-0.37576294,12.88073087,77.64154129,3.4
152282032111,-0.5612381,-1.4536988,9.507149,0.029592896,-0.07765045,-0.39286652,12.88070189,77.64152597,3.44
152282032132,-0.56889343,-1.4840882,9.769041,0.013717651,-0.1288391,-0.25200194,12.88070189,77.64152597,3.44
152282032153,-1.1254638,-1.3698318,9.711975,-0.005221558,-0.08791657,-0.13251647,12.88070189,77.64152597,3.44
152282032174,-0.5812195,-1.4504684,9.853149,0.047068786,-0.011929321,-0.05457153,12.88070189,77.64152597,3.44
152282032196,0.010169983,-1.7084167,9.686969,-0.02354126,0.03302307,-0.10441742,12.88067336,77.64148386,4.3
152282032217,-0.3823761,-1.5832717,9.120348,0.052322388,0.009567261,-0.12897491,12.88067336,77.64148386,4.3
152282032239,-0.6067017,-1.5769272,11.330839,-0.09390869,0.04780426,-0.13434601,12.88067336,77.64148386,4.3
152282032259,-0.68147737,-1.6079178,8.8671875,0.09715881,0.006512451,-0.13447571,12.88067336,77.64148386,4.3
152282032281,-0.26847687,-1.2525803,10.685137,0.033387758,-0.02316742,-0.20643464,12.88067336,77.64148386,4.3
152282032302,-0.49435884,-1.1937195,9.317876,-0.021830749,-0.09059753,-0.17014465,12.88065354,77.64144487,4.83
152282032323,-0.64450836,-1.1727813,10.442022,0.07675018,-0.059568785,-0.05554657,12.88065354,77.64144487,4.83
152282032344,-0.41790923,-1.3613373,9.936661,-0.020855714,-0.04625244,-0.04626312,12.88065354,77.64144487,4.83
152282032366,-0.5485565,-1.555156,9.579051,0.01200409,-0.04771881,-0.032948304,12.88065354,77.64144487,4.83
152282032387,-0.25244445,-1.3230515,10.011556,3.6621095E-5,-0.048208617,-0.020239258,12.88065354,77.64144487,4.83
152282032408,-0.6705917,-1.2589264,9.501406,-0.00289917,-0.059812926,0.010420227,12.88063677,77.64140359,4.64
152282032429,-0.6187851,-1.2556931,9.697975,-0.037834167,-0.03013153,0.0782135,12.88063677,77.64140359,4.64
152282032451,-0.49782562,-0.98374784,9.424115,0.005163574,0.028257752,0.104846194,12.88063677,77.64140359,4.64
152282032472,-0.43274385,-1.3218567,9.842024,0.003941345,0.092027284,0.09409638,12.88063677,77.64140359,4.64
152282032493,-0.20075989,-1.7589035,9.65036,0.007115173,0.12477112,0.03399353,12.88061988,77.64136064,4.94
152282032519,-0.5082367,-1.4054825,9.847287,0.056228638,0.10302277,-0.057139587,12.88061988,77.64136064,4.94
152282032540,-0.3341568,-1.4639877,9.6575365,-0.008027649,0.09972229,-0.08914795,12.88061988,77.64136064,4.94
152282032561,0.050608825,-1.5160309,9.45666,0.012741089,0.056352235,-0.14375457,12.88061988,77.64136064,4.94
152282032582,-0.14739838,-1.2708862,10.197357,0.084207155,-0.0703186,-0.24235687,12.88061988,77.64136064,4.94
152282032603,-0.9311676,-1.3436279,9.637438,-0.01756134,-0.14069214,-0.12922058,12.88060359,77.64131703,4.98
152282032625,-0.91106874,-1.5832703,9.225632,-0.0035079955,-0.09940033,0.0036956787,12.88060359,77.64131703,4.98
152282032646,-0.6222534,-1.3004395,9.518036,-0.011817932,-0.03452301,0.04046478,12.88060359,77.64131703,4.98
152282032667,-0.2329422,-1.1524445,10.161944,-0.018659974,-0.048208617,-0.025128175,12.88060359,77.64131703,4.98
152282032689,-0.77360076,-1.7587814,9.757559,-0.09805755,-0.05443878,0.032891847,12.88060359,77.64131703,4.98
152282032710,-0.3346359,-1.1056626,11.14982,0.19538268,-0.044911195,0.050479125,12.88058827,77.64126255,5.02
152282032731,-0.8309097,-2.771666,8.541285,0.033628844,-0.03330841,0.06514587,12.88058827,77.64126255,5.02
152282032752,-0.996611,-0.78945005,8.477278,-0.23305817,0.108155824,0.19220276,12.88058827,77.64126255,5.02
152282032773,0.41419524,-1.4581268,11.369243,0.21455994,0.15897827,0.060383607,12.88058827,77.64126255,5.02
152282032795,0.15361634,-1.9185044,9.5032015,-0.025860596,0.056602478,-0.1793106,12.88058827,77.64126255,5.02
152282032816,0.032901,-1.3656403,9.803497,0.024345398,-0.123464964,-0.1695343,12.8805712,77.64121869,5.14
152282032837,-0.99122924,-1.5415161,9.954844,-0.0032608032,-0.28436738,-0.18847199,12.8805712,77.64121869,5.14
152282032858,-2.0099716,-1.0365112,9.966688,-0.041737366,-0.16805573,0.28920442,12.8805712,77.64121869,5.14
152282032880,-0.71031034,-1.4602798,9.840469,0.02043457,0.05709076,0.32548827,12.8805712,77.64121869,5.14
152282032901,0.2769684,-0.9567108,13.301447,-0.059703063,0.17474365,0.1996521,12.88055661,77.64117331,4.96
152282032922,0.78819275,-1.415773,7.26591,-0.015959168,0.23179474,0.05195465,12.88055661,77.64117331,4.96
152282032943,0.4390808,-1.4172103,8.099811,0.20003052,0.10839844,-0.08621521,12.88055661,77.64117331,4.96
152282032965,0.4412338,-2.0047653,10.366295,-0.23611298,0.074682616,-0.19055024,12.88055661,77.64117331,4.96
152282032986,-0.23712769,-0.51941985,8.872093,0.23069611,-0.17685394,-0.2495575,12.88055661,77.64117331,4.96
152282033007,-0.87481844,-2.0337188,11.119792,0.0060256957,-0.2301239,-0.07558747,12.88053913,77.64111949,5.31
152282033028,-0.9242279,-0.8018967,7.985072,-0.13984223,-0.09121094,0.14369659,12.88053913,77.64111949,5.31
152282033050,0.15457459,-1.1222931,10.28721,0.10680542,-0.15840149,0.018113708,12.88053913,77.64111949,5.31
152282033071,-1.1889954,-1.1965882,9.61351,-0.06934967,-0.115888976,0.15677185,12.88053913,77.64111949,5.31
152282033092,-0.9302124,-0.9340973,10.38651,0.09166107,0.11390076,0.34185943,12.88053913,77.64111949,5.31
152282033113,0.44099426,-1.5065796,9.686132,-0.05884552,0.28786772,0.17986298,12.88052441,77.64107953,5.0
152282033135,0.43920287,-1.198027,8.989103,0.052807618,0.1303894,-0.113456726,12.88052441,77.64107953,5.0
152282033156,-0.8242081,-1.1145188,10.409601,0.07027893,0.019586181,-0.12652893,12.88052441,77.64107953,5.0
152282033177,-0.16833496,-1.3983047,9.128843,-0.07326202,0.0084640505,-0.064344786,12.88052441,77.64107953,5.0
152282033198,-0.13890381,-0.64911044,9.860806,0.092149355,-0.056393433,-0.06947327,12.88049527,77.64103448,5.31
152282033220,-0.8733841,-1.5459397,9.630976,-0.09598541,-0.07203217,-0.03417053,12.88049527,77.64103448,5.31
152282033241,-0.49902496,-0.8134979,8.942202,-0.029040527,0.016534423,0.08004455,12.88049527,77.64103448,5.31
152282033262,-0.6873398,-1.7982651,10.763023,0.10302124,0.041815184,0.022393798,12.88049527,77.64103448,5.31
152282033283,-0.5584854,-1.1336578,9.590299,0.008952332,0.104977414,0.040711977,12.88049527,77.64103448,5.31
152282033305,-0.05419922,-1.2680175,10.521704,-0.052737426,0.09593658,-0.078518674,12.88048086,77.64097109,5.67
152282033326,-0.24215393,-1.368274,10.142082,0.05085907,-0.008267212,-0.16733399,12.88048086,77.64097109,5.67
152282033347,-0.44674224,-1.6597198,9.484416,-0.17869568,-0.07398681,-0.112724304,12.88048086,77.64097109,5.67
152282033368,-0.87733,-1.0188034,10.078555,8.94165E-4,-0.08327027,-0.029405212,12.88048086,77.64097109,5.67
152282033390,-0.5434128,-1.4203202,10.59409,0.15066986,-0.06604461,-0.016822815,12.88048086,77.64097109,5.67
152282033411,-0.83162844,-1.2200394,8.932872,0.073452756,-0.005822754,0.042178344,12.88046884,77.64090005,5.71
152282033432,0.20171204,-2.0927033,9.605014,-0.20410614,0.061239623,0.0036987304,12.88046884,77.64090005,5.71
152282033453,-0.472583,-0.79615176,10.158354,0.18292542,0.05281067,-0.01499176,12.88046884,77.64090005,5.71
152282033475,-0.15601501,-2.5535598,11.135104,0.0155532835,0.06796265,-0.049926758,12.88046884,77.64090005,5.71
152282033496,-0.36693877,-1.695494,8.235245,-0.07754059,0.024472047,-0.0594574,12.88046884,77.64090005,5.71
152282033517,-0.49997863,-1.3048661,10.403616,0.050852966,-0.015472412,-0.07424164,12.88045171,77.6408552,5.67
152282033538,-0.48514405,-1.4989212,9.860687,0.005531311,-0.011807251,-0.062754825,12.88045171,77.6408552,5.67
152282033560,-0.53946227,-1.3666031,8.891475,0.043037415,-0.030982971,-0.047605895,12.88045171,77.6408552,5.67
152282033581,-0.58791655,-1.1572266,9.779451,-0.058229066,-0.04282837,-0.053959657,12.88045171,77.6408552,5.67
152282033602,-0.52570343,-1.0950149,9.06902,-0.0022857666,-0.07948456,-0.03221283,12.88043332,77.64082,5.26
152282033624,-0.5011795,-0.89078677,11.235245,0.034732055,-0.08106842,-0.0021606446,12.88043332,77.64082,5.26
152282033645,-0.54341125,-1.5123246,9.423523,0.059164427,-0.06006012,0.05414734,12.88043332,77.64082,5.26
152282033666,-0.58073884,-0.9132797,9.777059,-0.08792114,0.026548767,0.07124939,12.88043332,77.64082,5.26
152282033687,-0.31848603,-1.1118835,9.391217,0.10289612,-0.019741822,0.018971253,12.88043332,77.64082,5.26
152282033708,-0.80004275,-1.183667,9.693311,-0.08584595,-0.029153442,0.022148132,12.88042073,77.64076811,5.38
152282033730,-0.9151367,-0.2032074,11.665476,0.04144745,0.0063919066,0.08200226,12.88042073,77.64076811,5.38
152282033751,-0.45822603,-0.5647644,10.649363,0.019581605,0.046217345,0.06587525,12.88042073,77.64076811,5.38
152282033772,-0.17850494,-0.76660156,8.51257,-0.03527069,0.07296906,0.06257477,12.88042073,77.64076811,5.38
152282033793,-0.41695252,-1.730191,10.312452,0.075776674,0.06771545,-0.018896485,12.88042073,77.64076811,5.38
152282033815,-0.23198394,-1.3987824,9.688884,-0.06617279,-0.0025283813,-0.05896759,12.88039821,77.64074413,5.24
152282033836,-0.30747834,-1.1749344,9.711136,0.025813293,-0.07655029,-0.053962708,12.88039821,77.64074413,5.24
152282033857,-0.583371,-1.4737991,10.032255,-7.0037844E-4,-0.06494446,0.02837677,12.88039821,77.64074413,5.24
152282033878,-0.45176697,-1.2065201,9.784833,0.0076065063,-0.030981446,0.051460266,12.88039821,77.64074413,5.24
152282033899,-0.57822573,-1.3771302,9.988108,0.003941345,0.0059051514,0.065020755,12.88038232,77.64069919,5.35
152282033921,-0.44279176,-1.485643,9.545792,-0.02611084,0.009075928,0.025320435,12.88038232,77.64069919,5.35
152282033942,-0.593898,-1.5448669,9.903043,-0.029159546,-0.014002991,0.026420593,12.88038232,77.64069919,5.35
152282033963,-0.40809783,-1.6567307,9.362622,0.033503722,-0.024261475,0.04437103,12.88038232,77.64069919,5.35
152282033985,-0.76977384,-1.3488938,9.451037,0.0025985718,0.019950867,0.07112732,12.88038232,77.64069919,5.35
152282034006,-0.006225586,-1.6709671,10.198796,-0.054203797,0.04450531,0.028248597,12.8803589,77.64064836,5.94
152282034027,-0.74488676,-1.532901,9.703,0.08591614,0.0055389404,0.008467102,12.8803589,77.64064836,5.94
152282034048,-0.33834687,-1.740599,9.909979,-0.015113831,0.03790741,0.031185914,12.8803589,77.64064836,5.94
152282034070,-0.38261414,-1.2184861,9.446849,-0.020610046,0.052934267,0.0170166,12.8803589,77.64064836,5.94
152282034091,-0.36012268,-2.0511887,11.161306,-0.013761902,0.042799376,-0.020365905,12.8803589,77.64064836,5.94
152282034112,-0.07657166,-1.775177,9.90627,0.13686523,-0.0036209107,-0.043701172,12.8803381,77.6405949,5.77
152282034133,-0.5129013,-2.344307,10.213867,-0.023295593,-0.04259033,-0.111624144,12.8803381,77.6405949,5.77
152282034155,-0.9117874,-1.613301,8.804973,-0.069229126,-0.03807068,0.033384703,12.8803381,77.6405949,5.77
152282034176,-0.48143616,-1.6158127,9.74966,-0.030747985,-0.04209747,0.014082337,12.8803381,77.6405949,5.77
152282034197,-0.23999938,-1.699205,9.7122135,0.08420563,-0.03318634,0.015306091,12.88032932,77.64054735,5.32
152282034218,-0.3454071,-1.6909469,9.996005,0.006265259,-0.082904056,-0.01645813,12.88032932,77.64054735,5.32
152282034240,-0.87062836,-1.3975875,9.46635,-0.04858551,-0.07178497,0.0873764,12.88032932,77.64054735,5.32
152282034261,-0.5478363,-1.2579651,10.660849,0.10680695,0.0065200804,0.15615997,12.88032932,77.64054735,5.32
152282034282,-0.19035187,-2.182074,9.260449,-0.098435976,0.08946228,0.12256165,12.88032932,77.64054735,5.32
152282034303,-0.24239501,-1.395314,9.965253,-0.107472226,0.08152161,0.05781708,12.88031144,77.64050801,4.71
152282034325,-0.5619553,-1.513881,10.008563,0.25231782,0.0067596436,-0.041134644,12.88031144,77.64050801,4.71
152282034346,-0.3097519,-1.7458633,10.3126955,-0.030137634,0.02105255,0.008712769,12.88031144,77.64050801,4.71
152282034367,-0.60598147,-1.074199,9.007884,-0.028797913,0.07016144,-0.0013061523,12.88031144,77.64050801,4.71
152282034388,-0.014239502,-1.2354705,11.795885,0.01408081,0.031556703,-0.07631836,12.88031144,77.64050801,4.71
152282034410,-0.35055238,-1.2799804,9.489919,0.08811798,-0.011076355,-0.07252655,12.88029549,77.64046381,4.53
152282034431,-0.45427704,-1.541394,9.514567,-0.004484558,-0.057003785,-0.11113586,12.88029549,77.64046381,4.53
152282034452,-0.74632263,-1.3986679,9.414424,-0.06629791,-0.056391906,-0.028793335,12.88029549,77.64046381,4.53
152282034473,-0.9279388,-1.259285,9.288805,0.017378235,0.012501526,0.09458313,12.88029549,77.64046381,4.53
152282034495,-0.1975296,-1.4977264,10.218776,-0.036613464,0.101679996,0.069664,12.88029549,77.64046381,4.53
152282034516,-0.7849655,-1.7999405,10.514646,-0.16415557,0.098991394,-0.061166383,12.88028436,77.64040821,4.12
152282034537,-0.5663818,-0.33876497,8.968287,0.2695404,-0.011193847,-0.13703156,12.88028436,77.64040821,4.12
152282034558,-0.8417969,-0.28899232,10.735384,-0.0038726807,-0.032087706,-0.27129975,12.88028436,77.64040821,4.12
152282034580,-0.3955368,-0.5565094,8.882863,-0.02048645,-0.09328766,-0.123838805,12.88028436,77.64040821,4.12
152282034601,-0.50620574,-0.8130234,10.156082,0.032902528,-0.0716629,-0.03869171,12.88027365,77.64037824,3.78
152282034622,-0.34959412,-0.7881363,9.278155,-0.14448242,-0.047109984,0.012376403,12.88027365,77.64037824,3.78
152282034643,-0.123110965,-0.6115433,11.106633,0.10852051,-0.065431215,0.014326477,12.88027365,77.64037824,3.78
152282034665,-0.402594,-1.4064423,9.931398,-0.0058288574,-0.10733795,0.032655336,12.88027365,77.64037824,3.78
152282034686,-0.5822937,-1.1187042,9.713888,-0.0066833496,-0.07239838,0.116816714,12.88027365,77.64037824,3.78
152282034707,-0.5265396,-1.1510102,9.7934475,0.013591004,-0.051506042,0.15908813,12.88026383,77.64034843,3.74
152282034728,-0.39996186,-1.1791229,10.08729,-0.013284301,-0.056027222,0.16849975,12.88026383,77.64034843,3.74
152282034749,-0.6849457,-1.2600021,9.383081,-0.026106263,-0.040510558,0.19329834,12.88026383,77.64034843,3.74
152282034772,-0.44877625,-1.5235703,10.004496,0.018721009,-0.0075302124,0.27466583,12.88026383,77.64034843,3.74
152282034792,-0.33666992,-1.4760697,9.264997,0.028985595,0.029475402,0.25047454,12.88026383,77.64034843,3.74
152282034813,-0.28438872,-1.5482162,10.383519,-0.0042449953,0.05305481,0.23385772,12.88024724,77.64031513,4.01
152282034834,-0.03637085,-0.8162506,9.757677,0.077122495,0.081767276,0.21528931,12.88024724,77.64031513,4.01
152282034856,0.32087556,-1.2938553,10.5165615,0.11707153,0.065518185,0.05024414,12.88024724,77.64031513,4.01
152282034877,-0.38524628,-1.2505478,9.495542,-0.0115737915,-5.691528E-4,-0.020118713,12.88024724,77.64031513,4.01
152282034898,-0.26608428,-1.3143173,10.163859,0.013349915,-0.047476195,-0.014254761,12.88022437,77.64029315,3.57
152282034920,-0.36801606,-0.1800003,11.561508,0.18572846,-0.086201474,0.030206298,12.88022437,77.64029315,3.57
152282034941,-0.51637113,-0.49226227,7.6478043,0.06356506,-0.11967621,0.14198455,12.88022437,77.64029315,3.57
152282034962,-0.67166597,-1.8154953,11.191694,-0.4031189,-0.10513611,0.20979004,12.88022437,77.64029315,3.57
152282034983,-0.88534546,-0.6584442,7.6456513,-0.024887085,-0.026828002,0.43679047,12.88022437,77.64029315,3.57
152282035004,-0.4465027,-2.2416565,10.705473,-0.07485046,0.0060272217,0.4224945,12.88020828,77.64026979,3.25
152282035026,-0.7489548,-2.0717683,8.265154,-0.29878083,0.15201874,0.49640808,12.88020828,77.64026979,3.25
152282035047,0.8807968,-1.3305893,11.087369,0.17375794,0.059165955,0.13845062,12.88020828,77.64026979,3.25
152282035068,-0.47629395,-0.76456606,8.906789,0.41822663,-0.1425232,-0.07350616,12.88020828,77.64026979,3.25
152282035089,-1.2314682,-2.4816544,11.008287,-0.114804074,-0.15425262,0.15860596,12.88020828,77.64026979,3.25
152282035111,-0.5338379,-0.7828705,7.7115755,-0.07729797,-0.057122804,0.35298005,12.88018249,77.64024842,3.13
152282035132,-0.2849884,-2.655374,13.361986,0.1610611,-0.023417663,0.4220093,12.88018249,77.64024842,3.13
152282035153,-1.1168503,-0.7737793,8.938252,0.1416275,-0.033067323,0.43763885,12.88018249,77.64024842,3.13
152282035175,0.40869293,-2.3671584,10.306831,0.1675354,-0.10013275,0.25121307,12.88018249,77.64024842,3.13
152282035196,-0.94408876,1.6073196,8.014506,-0.13496247,-0.04552765,0.5243866,12.88016145,77.64024024,2.72
152282035217,0.61064756,0.205484,9.205653,0.33233795,-0.063970946,0.5032517,12.88016145,77.64024024,2.72
152282035238,-0.81391907,-0.63236237,10.512136,-0.19017486,-0.001789856,0.41614532,12.88016145,77.64024024,2.72
152282035259,-0.13172455,0.5803192,9.479271,0.12086487,-0.036727905,0.45951232,12.88016145,77.64024024,2.72
152282035281,-1.0937637,-0.29306334,13.36689,0.01921692,0.054156493,0.44973296,12.88016145,77.64024024,2.72
152282035302,-0.28307343,0.26016083,10.699732,0.012867737,0.034733582,0.3594513,12.88013574,77.64023817,2.94
152282035323,-0.36706084,-0.25034943,12.466471,0.08420563,0.059286498,0.27930754,12.88013574,77.64023817,2.94
152282035345,0.017346192,-0.2308487,8.75293,-0.017070007,0.09728241,0.33343047,12.88013574,77.64023817,2.94
152282035366,-0.5376679,-0.770549,9.241066,0.1390625,0.1682663,0.27307892,12.88013574,77.64023817,2.94
152282035387,-0.16941528,0.127359,11.0992155,-0.037472535,0.22910157,0.20319366,12.88013574,77.64023817,2.94
152282035408,0.5850418,-0.030926514,10.687886,-0.09647675,0.20576629,-0.038327027,12.88010766,77.64024898,3.43
152282035430,-0.27948302,-1.0714462,8.113207,0.06209717,0.102293395,-0.15340272,12.88010766,77.64024898,3.43
152282035451,-0.45619202,-0.5416748,11.637599,0.030082703,0.01408844,-0.19836883,12.88010766,77.64024898,3.43
152282035472,0.085661314,-0.72723997,9.814746,0.015914917,-0.0954895,-0.2061905,12.88010766,77.64024898,3.43
152282035493,-0.5557327,-1.7863022,8.897575,0.055497743,-0.17025757,-0.1319046,12.88010766,77.64024898,3.43
152282035515,-0.6315857,-1.71978,7.4615235,-0.032826234,-0.17905274,0.004673767,12.88007639,77.64026798,4.02
152282035536,-0.7704895,-1.3906479,8.461008,0.042425536,-0.13164672,0.12463989,12.88007639,77.64026798,4.02
152282035557,-0.85914457,-0.96042025,10.572795,-0.032702636,-0.05468445,0.18804474,12.88007639,77.64026798,4.02
152282035578,-0.8599823,-0.8842071,9.986313,-0.04186859,0.026304627,0.22310944,12.88007639,77.64026798,4.02
152282035599,-0.32865602,-1.1943161,10.173549,0.04560242,0.086653136,0.1891449,12.88004051,77.64028766,4.38
152282035621,-0.10504608,-1.4501083,9.259132,-0.060554504,0.11683197,0.10460357,12.88004051,77.64028766,4.38
152282035642,-0.14476928,-1.3262802,9.983915,0.050488282,0.055987548,-0.002282715,12.88004051,77.64028766,4.38
152282035663,-0.5068024,-1.1718231,10.314011,-0.1301941,0.014453125,-0.034295656,12.88004051,77.64028766,4.38
152282035685,-0.7344788,-0.097328186,9.855902,0.043893434,-0.044786073,0.012008667,12.88004051,77.64028766,4.38
152282035705,-0.55047,-1.1036301,10.050679,0.18805237,-0.033306886,0.06123047,12.88000503,77.64031135,4.3
152282035727,-0.52977294,-0.710968,9.271452,-0.025012206,0.026428223,0.11718597,12.88000503,77.64031135,4.3
152282035748,-0.5899521,-0.20835571,10.718753,0.09764099,0.12428131,0.11474304,12.88000503,77.64031135,4.3
152282035770,-0.09128876,-1.0495529,9.076322,-0.048951723,0.16435699,0.009565735,12.88000503,77.64031135,4.3
152282035791,0.24921112,-0.62805635,9.117475,0.035708617,0.13442382,-0.10600281,12.88000503,77.64031135,4.3
152282035812,-0.71521604,-0.3196228,11.176381,0.04046936,0.121228024,-0.20692292,12.87997302,77.64033581,4.21
152282035833,0.283667,-0.8517822,9.276001,0.04841461,0.07565918,-0.24735871,12.87997302,77.64033581,4.21
152282035855,-0.46193543,-0.37812653,11.189303,0.13759765,-0.0030120849,-0.34656066,12.87997302,77.64033581,4.21
152282035876,0.22660217,-0.84640044,9.166649,0.15372467,-0.11600952,-0.38675386,12.87997302,77.64033581,4.21
152282035897,-0.101817325,-1.200058,9.894785,0.060134888,-0.21118775,-0.34240875,12.87994013,77.64035539,4.23
152282035918,-1.0101318,-1.2804596,9.757074,-0.042355347,-0.29230958,-0.22549286,12.87994013,77.64035539,4.23
152282035940,-1.9831727,-0.9550354,9.71987,0.021775817,-0.18675232,0.15078735,12.87994013,77.64035539,4.23
152282035960,-0.9755539,-1.0773071,10.327051,0.007972717,0.007246399,0.3708145,12.87994013,77.64035539,4.23
152282035982,-0.5702103,-1.1207383,8.993292,0.010784912,0.21102294,0.33856353,12.87994013,77.64035539,4.23
152282036003,0.6848267,-0.41150513,10.890561,0.0203125,0.21371308,-0.011817932,12.87990689,77.64037012,3.82
152282036025,0.14811707,-0.49824524,9.769282,-0.012181091,0.09178619,-0.31100923,12.87990689,77.64037012,3.82
152282036045,-0.5154144,-0.63571167,8.723262,-0.022810364,0.026791383,-0.33556518,12.87990689,77.64037012,3.82
152282036067,-0.7923843,-0.998346,9.120351,-0.22389679,0.05354309,-0.20642853,12.87990689,77.64037012,3.82
152282036088,0.60873413,-1.9022338,10.121625,-0.18589935,0.065029904,-0.31137696,12.87990689,77.64037012,3.82
152282036109,-0.32985076,-1.257727,9.456421,0.16251831,-0.10062103,-0.54937136,12.87987865,77.64037997,3.06
152282036131,-0.81475526,-0.9387649,10.430418,0.015917968,-0.16206971,-0.352182,12.87987865,77.64037997,3.06
152282036152,-1.1016572,-1.3573883,9.979971,-0.11858368,-0.08021851,-0.058605958,12.87987865,77.64037997,3.06
152282036173,-0.8562744,-1.2492325,8.691673,-0.15975495,0.047320556,0.13087311,12.87987865,77.64037997,3.06
152282036194,0.28019866,-0.5892914,10.5781765,-0.01889801,0.11756287,0.016160583,12.87985672,77.64038381,2.36
152282036215,-0.2472992,-1.0628312,10.7910185,0.017382812,0.108522035,-0.124086,12.87985672,77.64038381,2.36
152282036237,-0.7354355,-0.07399597,9.37865,0.3791336,0.12746124,-0.20533752,12.87985672,77.64038381,2.36
152282036258,-0.40654296,-0.72508544,10.511652,0.24987336,0.22739258,-0.21107177,12.87985672,77.64038381,2.36
152282036279,0.29335937,-0.3136383,9.34599,-0.07216644,0.24657898,-0.38443604,12.87985672,77.64038381,2.36
152282036300,0.4302307,-0.9646042,11.375821,0.22422028,0.15372467,-0.7276184,12.8798343,77.64038093,2.79
152282036322,0.12526397,-0.9250061,9.131355,0.22714996,-0.03367157,-0.8571213,12.8798343,77.64038093,2.79
152282036343,-1.0692383,-0.8532211,10.058214,0.20136718,-0.15987091,-0.79188234,12.8798343,77.64038093,2.79
152282036364,-0.58026123,-0.3896103,9.669859,-0.013403321,-0.20739594,-0.51772463,12.8798343,77.64038093,2.79
152282036385,-1.4112885,0.0074783326,11.228185,0.07967987,-0.1900467,-0.35975647,12.8798343,77.64038093,2.79
152282036407,-1.5501893,0.02207489,12.07285,0.0032104491,-0.1469223,-0.14998627,12.87981591,77.64037171,2.22
152282036428,-0.60215455,0.6790253,10.274046,0.045848083,-0.030249024,-0.06043396,12.87981591,77.64037171,2.22
152282036450,-0.045584105,-1.1596206,9.247286,0.03265228,0.04511566,-0.1041687,12.87981591,77.64037171,2.22
152282036470,0.45391694,-0.21014862,9.243698,-0.040278625,-0.013272095,-0.22867279,12.87981591,77.64037171,2.22
152282036492,-0.70229644,-0.27332154,10.302762,0.03460846,-0.08046265,-0.22561188,12.87981591,77.64037171,2.22
152282036513,-0.5515472,-0.14614105,10.082982,-0.03563843,-0.105140686,-0.110768124,12.87980372,77.6403553,2.17
152282036534,-0.53599244,-0.15535125,9.79572,0.017504882,-0.08388214,-0.04773102,12.87980372,77.6403553,2.17
152282036555,-0.44015962,-0.30753785,10.249281,0.030451965,-0.06213684,0.012013244,12.87980372,77.6403553,2.17
152282036577,-0.45499572,-0.47204438,9.353767,-0.012426758,-0.016081238,0.030331422,12.87980372,77.6403553,2.17
152282036598,-0.43740845,-0.5495712,9.6753645,-0.057868958,0.050488282,0.05145874,12.8797891,77.64033176,3.1
152282036619,-0.34983063,-0.32201082,9.908545,0.047192384,0.088853456,0.028622437,12.8797891,77.64033176,3.1
152282036640,0.012440491,-0.9059814,9.723102,8.911133E-4,0.10375824,-0.05884552,12.8797891,77.64033176,3.1
152282036662,-0.05156555,-0.6238693,9.37363,-0.051885985,0.039865114,-0.11565857,12.8797891,77.64033176,3.1
152282036683,-0.2349762,-0.85693055,10.224276,0.08175965,0.012503052,-0.12176361,12.8797891,77.64033176,3.1
152282036704,-0.33092958,-1.2664611,10.107626,0.0016220093,0.015309143,-0.08755799,12.87974772,77.64025118,5.36
152282036725,-0.15445404,-1.1932389,9.308306,0.0139633175,0.0032165528,-0.11003723,12.87974772,77.64025118,5.36
152282036747,-0.17395782,-2.1134002,9.829102,-0.0071777343,-0.046987914,-0.13276061,12.87974772,77.64025118,5.36
152282036768,-0.050488282,-1.044046,10.214226,-0.017196655,-0.11650238,-0.13313141,12.87974772,77.64025118,5.36
152282036789,-1.0344177,-1.1457443,10.215185,0.01566925,-0.13226166,-0.027574157,12.87974772,77.64025118,5.36
152282036810,-0.637088,-1.399025,9.730039,-0.031236267,-0.10135345,0.039244078,12.87972927,77.64021419,5.34
152282036832,-0.62045896,-1.1989838,10.229663,0.026539613,-0.081073,0.07515564,12.87972927,77.64021419,5.34
152282036853,-0.5123032,-1.6216736,9.710539,0.0011322021,-0.042222597,0.12952423,12.87972927,77.64021419,5.34
152282036874,-0.62536466,-1.2065201,9.587308,-0.039668273,0.012623596,0.14247437,12.87972927,77.64021419,5.34
152282036895,-0.53156435,-1.1106873,10.205612,0.0076080323,0.054527283,0.15493469,12.87970034,77.64016015,5.32
152282036917,-0.20877533,-1.3040268,9.815106,0.051342774,0.08420868,0.09592895,12.87970034,77.64016015,5.32
152282036938,-0.44841766,-1.3530823,9.725372,-0.01291809,0.12379303,0.064778134,12.87970034,77.64016015,5.32
152282036959,-0.29037172,-1.1096115,9.408444,0.027764892,0.14578399,0.016036987,12.87970034,77.64016015,5.32
152282036980,-0.12048034,-1.3935165,10.292116,0.042669676,0.15787658,-0.07191773,12.87970034,77.64016015,5.32
152282037002,-0.15302277,-1.5185455,9.422564,-0.0060775755,0.10290222,-0.1699005,12.87967865,77.6401123,5.18
152282037023,-0.056350708,-1.413263,8.340288,0.06942902,-3.2806396E-4,-0.28303528,12.87967865,77.6401123,5.18
152282037044,-0.31704864,-2.054419,11.086052,-0.057015993,-0.06861267,-0.2733856,12.87967865,77.6401123,5.18
152282037065,-0.5930618,-0.71491545,8.793968,0.045114137,-0.13714905,-0.14094238,12.87967865,77.6401123,5.18
152282037086,-0.55956113,-1.3922043,10.5323515,0.07480011,-0.13983612,-0.063734435,12.87967865,77.6401123,5.18
152282037108,-1.0704285,-0.7828735,9.445775,-0.058966063,-0.05859375,0.06868591,12.87966506,77.64006197,4.73
152282037129,0.078364566,-1.3080963,9.418973,0.029719543,-0.014248657,0.046699524,12.87966506,77.64006197,4.73
152282037150,-0.40151674,-1.3317856,10.178693,-0.008145141,-0.040388487,-0.03514252,12.87966506,77.64006197,4.73
152282037172,-0.44853514,-1.1039886,11.901762,-0.07180023,-0.066784665,-0.028305054,12.87966506,77.64006197,4.73
152282037193,-0.6313461,-1.1498108,8.901883,0.121960446,-0.12224579,0.046095274,12.87966506,77.64006197,4.73
152282037214,-1.093283,-0.90921324,10.8299,0.0145751955,-0.056033324,0.17289734,12.87964837,77.64002017,4.31
152282037235,-0.6669998,-0.7138382,9.378174,-0.012301636,0.07187195,0.2635498,12.87964837,77.64002017,4.31
152282037257,0.20051727,-1.5331405,9.710421,0.055377197,0.13625641,0.16043091,12.87964837,77.64002017,4.31
152282037278,-0.07346344,-1.3843079,9.752172,-0.031607054,0.1540924,0.02288208,12.87964837,77.64002017,4.31
152282037299,0.07286072,-1.5568329,9.747029,0.019822692,0.07993622,-0.09256439,12.8796378,77.63998806,4.36
152282037320,-0.22193298,-1.8324829,10.006291,-0.015846252,0.028501892,-0.17136535,12.8796378,77.63998806,4.36
152282037342,-0.07094727,-3.035115,12.206131,-0.16782685,-0.009126281,-0.12994996,12.8796378,77.63998806,4.36
152282037363,-0.98572695,-0.19064789,7.6478057,0.11463471,-0.031469725,-0.11786194,12.8796378,77.63998806,4.36
152282037384,-0.7465607,-2.3092513,12.084578,0.03363495,0.020199586,-0.00778656,12.8796378,77.63998806,4.36
152282037405,-0.7409378,-0.35659027,9.278158,-0.02867279,0.08494415,0.02532196,12.87962601,77.63995792,3.95
152282037427,-0.0879364,-0.47706756,10.484854,0.148349,0.08213349,-0.08352814,12.87962601,77.63995792,3.95
152282037448,0.070588686,-0.46677703,9.909261,-0.06837616,0.026550293,-0.24894714,12.87962601,77.63995792,3.95
152282037469,-0.062812805,-0.6107071,8.975345,0.042425536,-0.09023285,-0.25505525,12.87962601,77.63995792,3.95
152282037490,-0.84036255,-0.25657195,10.994764,0.0033309937,-0.17392425,-0.22036132,12.87962601,77.63995792,3.95
152282037512,-0.6723846,-0.69529265,8.90583,-0.007661438,-0.1794159,-0.013154602,12.87961472,77.63993554,3.66
152282037533,-0.75589293,-0.016928101,10.024714,0.030210877,-0.14887695,0.1370987,12.87961472,77.63993554,3.66
152282037554,-0.91154784,0.12077637,11.674088,-0.01975708,-0.07679596,0.19049072,12.87961472,77.63993554,3.66
152282037575,-0.10648193,-0.6951752,8.15951,0.029356385,-0.023286438,0.21455231,12.87961472,77.63993554,3.66
152282037597,-0.6662842,-1.0663025,9.151457,0.0037063598,0.029232789,0.23715821,12.87960403,77.63990048,3.94
152282037618,-0.43693084,-0.6832123,10.205017,-0.025987243,0.1094986,0.21711883,12.87960403,77.63990048,3.94
152282037639,-0.1655838,-1.1575867,9.098333,0.024830628,0.18450776,0.17851868,12.87960403,77.63990048,3.94
152282037660,0.14153442,-0.50231475,10.512854,-0.010469055,0.19012909,-0.027938843,12.87960403,77.63990048,3.94
152282037682,0.8475372,-1.183786,8.973549,-0.0063156127,0.075904846,-0.21058503,12.87960403,77.63990048,3.94
152282037703,-0.4298691,-0.24436493,10.148664,0.054762267,-0.041490175,-0.22561188,12.87958571,77.63986498,4.25
152282037724,-0.8070984,-0.40959167,10.343677,-0.008027649,-0.040148925,-0.09598999,12.87958571,77.63986498,4.25
152282037745,-0.46432647,-0.34498292,11.249481,-2.1514893E-4,-0.0191391,-0.07350922,12.87958571,77.63986498,4.25
152282037767,-0.16080017,-0.6672958,11.488525,0.024957275,-0.02450714,-0.09060822,12.87958571,77.63986498,4.25
152282037788,-0.2930023,-0.31997833,10.161226,-0.0022872924,-0.04283142,-0.0819397,12.87958571,77.63986498,4.25
152282037809,0.01136322,-0.5636856,9.942881,0.01212616,0.0022399903,-0.012176514,12.87957397,77.6398257,4.46
152282037830,0.20159607,-1.3474579,8.914927,-0.0224411,-0.009611512,-0.105270386,12.87957397,77.6398257,4.46
152282037851,-0.30556488,-0.84305114,7.581523,-0.052005004,-0.112226866,-0.1050293,12.87957397,77.6398257,4.46
152282037873,-0.43525544,-0.84950864,12.10372,-0.04394226,-0.11454163,-0.05115204,12.87957397,77.6398257,4.46
152282037894,-0.06915283,-0.5340179,9.481783,0.062220763,-0.14227906,0.06929932,12.87957397,77.6398257,4.46
152282037915,-0.9912308,-0.72233427,10.535942,0.026667785,-0.05382843,0.16618042,12.87955848,77.63977965,4.54
152282037937,0.30364686,-0.79184264,8.999031,-0.0021636963,0.02324524,0.20490417,12.87955848,77.63977965,4.54
152282037958,-0.36107787,-0.41521454,10.897853,0.039009094,0.030577088,0.10851135,12.87955848,77.63977965,4.54
152282037979,-0.7493118,-0.32799834,9.761505,-0.007293701,0.028623963,0.14442901,12.87955848,77.63977965,4.54
152282038000,-0.2280365,-0.21804658,9.56649,0.029844666,0.030577088,0.12769166,12.87954725,77.63973147,5.08
152282038022,-0.4551178,-0.23144531,9.570799,-0.031359863,0.053053282,0.1361206,12.87954725,77.63973147,5.08
152282038043,-0.26548615,-0.019921875,9.694748,-0.002531433,0.11487579,0.14870605,12.87954725,77.63973147,5.08
152282038064,-0.08638306,-0.17689057,10.068622,-0.008999634,0.09996796,0.02337494,12.87954725,77.63973147,5.08
152282038085,-0.41264495,-0.071725465,10.047209,-0.017677307,0.094473265,0.012373352,12.87954725,77.63973147,5.08
152282038106,-0.2584259,-0.4718048,9.611954,0.016889954,0.09043884,-0.02414856,12.87953,77.63968553,5.26
152282038128,-0.3662216,-0.46833497,9.935583,0.014695739,0.08225708,-0.042230226,12.87953,77.63968553,5.26
152282038149,-0.113421634,-0.82271117,9.855902,0.019952392,0.06771545,-0.09513092,12.87953,77.63968553,5.26
152282038170,-0.34121704,-0.238385,9.928166,0.021414185,0.033877563,-0.12775116,12.87953,77.63968553,5.26
152282038191,-0.23414154,-0.62052,9.543637,0.0072402954,-0.022920227,-0.1822342,12.87953,77.63968553,5.26
152282038213,-0.46073762,-0.51894224,9.3684845,2.807617E-4,-0.09695129,-0.1744217,12.87951644,77.63962662,5.57
152282038234,-0.8737381,-0.2590805,9.536342,0.045967102,-0.1276184,-0.0687439,12.87951644,77.63962662,5.57
152282038255,-0.48598328,-0.5809143,10.148784,-0.09756927,-0.058224488,0.0197052,12.87951644,77.63962662,5.57
152282038277,-0.3701706,-0.22534332,9.425794,0.03643646,-0.036723327,0.014695739,12.87951644,77.63962662,5.57
152282038298,-0.45200348,-0.48819733,10.272252,0.004676819,-0.074841306,-0.02463684,12.87949788,77.63957726,5.73
152282038319,-0.81978303,-0.3485733,9.443262,-0.008274841,-0.019381713,0.077113345,12.87949788,77.63957726,5.73
152282038340,-0.5292908,-0.34797668,9.9123745,0.004795837,0.03314514,0.059399415,12.87949788,77.63957726,5.73
152282038362,-0.102293395,-0.23371735,10.053909,0.003086853,0.031430054,0.014331055,12.87949788,77.63957726,5.73
152282038383,-0.78807676,-0.17880401,10.066946,0.031307984,0.0034606934,-2.0446777E-4,12.87949788,77.63957726,5.73
152282038404,-0.12275238,-0.4377075,9.747866,-0.04332886,-0.016444396,-0.019999694,12.87947817,77.63951994,6.26
152282038425,-0.408696,-0.09038849,10.146152,0.025198365,-0.04698639,-2.0599365E-4,12.87947817,77.63951994,6.26
152282038447,-1.0432739,0.07567291,10.413431,-0.006929016,-0.037576295,0.043151855,12.87947817,77.63951994,6.26
152282038468,-0.784729,-0.42382964,9.6976185,0.0065109255,-2.0599365E-4,0.076257326,12.87947817,77.63951994,6.26
152282038489,-0.5440079,-0.6073578,9.740089,-0.019264221,0.01408081,0.03741455,12.87947817,77.63951994,6.26
152282038510,-0.7634308,-0.32775575,9.548305,0.024835205,0.0074905395,0.041567992,12.87946434,77.63944503,6.69
152282038531,-0.66616666,-0.19770508,10.00282,-0.0035079955,0.034118652,0.04461975,12.87946434,77.63944503,6.69
152282038553,-0.21032867,-0.47180328,9.885933,-0.02940979,0.02508545,0.019708252,12.87946434,77.63944503,6.69
152282038574,0.14165191,-1.1775681,10.076282,-0.0076644896,-0.002772522,-0.004603577,12.87946434,77.63944503,6.69
152282038595,-0.33499908,-0.6957733,11.28932,0.01200409,-0.05456238,-0.02036438,12.87944357,77.63938423,6.86
152282038617,-0.87422025,-1.0079162,11.508865,-0.058728028,-0.039776612,0.04535065,12.87944357,77.63938423,6.86
152282038638,-0.3558151,-1.6156921,9.490878,0.08029785,-0.036846925,0.064900205,12.87944357,77.63938423,6.86
152282038659,-0.44901428,-1.4536972,10.215303,-0.03954315,-0.049916077,0.028254699,12.87944357,77.63938423,6.86
152282038680,-0.7298111,-1.405722,9.607289,-0.06250916,-0.059446715,0.07760315,12.87944357,77.63938423,6.86
152282038701,-0.8110474,-1.6159317,9.500806,0.0697937,-0.037945557,0.13856506,12.87942263,77.63933565,6.4
152282038723,-0.7520645,-1.5610154,10.184918,-0.005833435,0.06051178,0.19562073,12.87942263,77.63933565,6.4
152282038744,-0.22337036,-1.6395019,9.573671,0.018721009,0.115852356,0.11975098,12.87942263,77.63933565,6.4
152282038765,-0.2408371,-1.5855453,9.800984,-5.79834E-4,0.0804245,-9.399414E-4,12.87942263,77.63933565,6.4
152282038787,-0.60454714,-1.7142792,9.400785,-0.001802063,0.024348449,-0.022927856,12.87942263,77.63933565,6.4
152282038808,-0.6363724,-1.3711456,10.01311,0.006626892,-0.0028869628,0.011401367,12.87939545,77.63928385,5.97
152282038829,-0.8529236,-1.6848465,9.447804,-0.0192688,0.051100157,0.08126984,12.87939545,77.63928385,5.97
152282038850,-0.47665253,-1.3898102,9.871813,0.022631835,0.112062074,0.065014645,12.87939545,77.63928385,5.97
152282038871,0.16270752,-1.567717,9.814146,0.06075134,0.08763428,-0.08829498,12.87939545,77.63928385,5.97
152282038893,-0.3558151,-1.0526626,10.011912,0.019700622,0.04841461,-0.18040772,12.87939545,77.63928385,5.97
152282038914,-0.017468262,-1.3643296,9.901365,0.039857484,-0.0020355224,-0.18896179,12.87937742,77.63925526,4.96
152282038935,-0.4485382,-1.4644654,10.214108,0.07944183,-0.06580353,-0.24161835,12.87937742,77.63925526,4.96
152282038957,-0.6896164,-1.2879975,7.9849534,-0.13764496,-0.08192749,-0.082429506,12.87937742,77.63925526,4.96
152282038978,-1.3769516,-0.43638915,10.015142,0.10240936,-0.0014221191,-0.039427184,12.87937742,77.63925526,4.96
152282038999,-0.4432724,-0.45397797,8.062958,0.07615509,0.0645401,0.022880554,12.87937072,77.63922843,3.83
152282039020,0.23844299,-0.79567415,10.436281,-0.27166748,0.12391815,-0.12701721,12.87937072,77.63922843,3.83
152282039041,-0.23449859,0.9148361,9.4383545,0.19794616,0.029597472,-0.25187683,12.87937072,77.63922843,3.83
152282039063,-0.40953523,-0.12245331,11.423201,0.082624815,-0.020845031,-0.2599457,12.87937072,77.63922843,3.83
152282039084,-0.065086365,0.68213195,8.716436,-0.055303954,-0.08864899,-0.24136963,12.87937072,77.63922843,3.83
152282039105,-0.3992447,0.057609558,10.3856735,0.09105225,-0.19127503,-0.22438812,12.87936427,77.63918915,3.67
152282039127,-0.8774506,0.55998385,9.9199095,-0.10563507,-0.21900329,-0.03148346,12.87936427,77.63918915,3.67
152282039147,-0.86990964,0.57709044,9.508464,0.009564209,-0.16647187,0.12597808,12.87936427,77.63918915,3.67
152282039169,-0.62249297,-0.05270233,10.035724,-0.03930359,-0.086203,0.20783997,12.87936427,77.63918915,3.67
152282039190,-0.48335266,-0.10043945,9.840106,0.050372314,0.0067596436,0.26599273,12.87936427,77.63918915,3.67
152282039212,-0.24813537,-0.56823575,9.616739,0.0111557,0.09508362,0.20184478,12.87935537,77.63914804,4.37
152282039233,-0.3006607,0.10546112,9.757677,-0.06739807,0.16496734,0.18621369,12.87935537,77.63914804,4.37
152282039254,0.3852417,0.13178253,9.722502,0.058428954,0.121104434,-0.005834961,12.87935537,77.63914804,4.37
152282039275,-0.029315185,-0.37716827,9.953409,0.0030914308,0.045729063,-0.071554564,12.87935537,77.63914804,4.37
152282039296,-0.5704514,0.23443604,9.840349,-0.01829071,-0.021205138,-0.058599852,12.87933808,77.63911035,4.99
152282039318,-0.2534027,-0.26326904,10.073408,0.016526794,-0.039776612,-0.0055801393,12.87933808,77.63911035,4.99
152282039339,-0.44650573,-0.4741989,9.427111,-0.008518982,-0.041003417,0.0052902224,12.87933808,77.63911035,4.99
152282039360,-0.49519652,0.098400876,9.952448,-0.02073059,-0.016081238,0.050967406,12.87933808,77.63911035,4.99
152282039382,-0.34145966,-0.4290924,10.055944,-2.0751954E-4,0.034849547,0.053779602,12.87933808,77.63911035,4.99
152282039402,-0.17599335,-0.40947264,9.667949,-0.031726073,0.0441391,0.02519684,12.87932098,77.63904291,5.44
152282039424,-0.03062744,-0.32763672,9.937619,-0.005215454,0.012127685,-0.033070374,12.87932098,77.63904291,5.44
152282039445,-0.31525573,-0.4533798,9.70886,-0.013645935,-0.036602784,-0.03588257,12.87932098,77.63904291,5.44
152282039467,-0.63589174,-0.23575287,9.998154,0.002355957,-0.041978456,0.01005249,12.87932098,77.63904291,5.44
152282039488,-0.42341155,-0.31782532,9.954966,-0.0046112062,-0.019132996,0.03777466,12.87932098,77.63904291,5.44
152282039509,-0.25926208,-0.51810455,9.946472,-0.020729065,-0.0031326294,0.04730072,12.87930112,77.63900022,5.77
152282039530,-0.33559877,-0.34905243,9.759233,-0.007659912,0.009931946,0.029107666,12.87930112,77.63900022,5.77
152282039552,-0.5277405,-0.53700864,9.679553,-0.026106263,0.020071412,0.048649598,12.87930112,77.63900022,5.77
152282039572,-0.42867738,-0.466539,9.925654,0.00186615,0.036808778,0.023857117,12.87930112,77.63900022,5.77
152282039594,-0.24754028,-0.43782654,9.949341,0.011763001,0.020558167,-0.01083374,12.87927903,77.63895786,5.95
152282039615,-0.34313202,-0.33756715,9.638275,0.0049224854,-0.003503418,-0.009855652,12.87927903,77.63895786,5.95
152282039637,-0.64582217,-0.3917633,10.154767,0.0041885376,-0.008139038,0.0043151854,12.87927903,77.63895786,5.95
152282039657,-0.117608644,-0.67088777,9.544599,0.019212341,-0.008021546,-6.973267E-4,12.87927903,77.63895786,5.95
152282039679,-0.45726776,-0.6158539,9.924695,-0.07949372,-0.015104676,0.009812927,12.87927903,77.63895786,5.95
152282039700,-0.5830124,-0.4652237,9.111135,0.040351868,-0.027438354,0.017022705,12.87926294,77.6389189,5.41
152282039721,-0.47796783,-0.8603989,9.780172,0.014328003,-0.0043548583,0.04571686,12.87926294,77.6389189,5.41
152282039742,-0.03302002,-0.386261,9.694387,-0.012182618,0.03302002,0.051461793,12.87926294,77.6389189,5.41
152282039764,-0.22301026,-0.54107666,10.111458,7.675171E-4,0.031312563,0.0051727295,12.87926294,77.6389189,5.41
152282039785,-0.4283142,-0.46713868,10.237318,8.911133E-4,0.031922914,0.009080505,12.87926294,77.6389189,5.41
152282039806,-0.6064636,-0.64397126,9.894426,-0.010597229,0.036567688,2.807617E-4,12.87923746,77.63886124,6.67
152282039827,-0.78759766,-0.77772677,9.95006,0.015792847,0.027035523,-0.0013061523,12.87923746,77.63886124,6.67
152282039849,-0.6557541,-0.6908676,9.799909,0.003451538,0.032046508,-0.019143676,12.87923746,77.63886124,6.67
152282039870,-0.77934265,-0.62793577,9.491953,-0.002897644,0.027519226,-0.021586608,12.87923746,77.63886124,6.67
152282039892,-0.6279968,-0.5713455,10.123419,-0.0039932253,0.020562744,-0.050294496,12.87923746,77.63886124,6.67
152282039912,-0.48287353,-1.0409362,9.52976,3.5095214E-5,-0.009971619,-0.068374634,12.87920964,77.63881089,6.46
152282039934,-0.5082382,-0.78909457,9.237956,0.03839264,-0.05896149,-0.078149416,12.87920964,77.63881089,6.46
152282039955,-0.5887543,-1.0733597,9.575943,-0.06336518,-0.08327027,-0.05066223,12.87920964,77.63881089,6.46
152282039977,-0.338826,-0.98267365,9.293712,0.034117125,-0.07239685,0.017507935,12.87920964,77.63881089,6.46
152282039997,-0.28905183,-1.1550766,9.789142,-0.040769957,-0.043930054,0.030697633,12.87919273,77.63875431,6.28
152282040019,-0.21164855,-0.61872405,9.358198,0.02935486,0.010420227,0.058055114,12.87919273,77.63875431,6.28
152282040040,-0.17646942,-0.92081755,9.960352,-0.021585083,0.029112244,0.039241027,12.87919273,77.63875431,6.28
152282040061,-0.3226715,-0.2612381,9.862244,0.014204407,0.016529847,0.011160279,12.87919273,77.63875431,6.28
152282040082,-0.10708008,-0.9961914,9.742124,-0.018167114,0.012982178,0.008592224,12.87919273,77.63875431,6.28
152282040104,0.16211243,-0.84819335,8.76705,-0.04357605,0.014694214,0.010176087,12.87917219,77.63868849,6.36
152282040125,-0.33104858,-0.5766083,11.364817,0.01335144,0.020069886,0.0016281127,12.87917219,77.63868849,6.36
152282040146,-0.8047058,-0.99654996,9.2878475,-0.0021636963,0.040107727,-0.0024032593,12.87917219,77.63868849,6.36
152282040167,-0.4017563,-0.5642883,11.310018,-0.021589661,0.0040649413,-0.03649292,12.87917219,77.63868849,6.36
152282040189,-0.197052,-0.06789704,10.676161,0.013226318,-0.029026795,-0.037342835,12.87917219,77.63868849,6.36
152282040210,0.04199524,-1.6177261,8.531238,-0.024891663,-0.039900206,-0.026470948,12.87915243,77.63863289,6.41
152282040232,-0.77622986,-0.19723053,10.175585,0.01909027,-0.047962952,0.0012588501,12.87915243,77.63863289,6.41
152282040252,-0.7119873,-1.1347382,9.499971,0.024710083,-0.032324217,0.030207824,12.87915243,77.63863289,6.41
152282040274,-0.54293215,-1.2363113,9.976621,-0.08083191,-0.022795105,0.029960632,12.87915243,77.63863289,6.41
152282040296,-0.35509643,-0.8663818,11.155803,0.047805786,-0.024627686,0.050360106,12.87913196,77.63858365,6.05
152282040316,-0.4618164,-0.9697479,9.907585,0.058428954,-0.0015441894,0.06282196,12.87913196,77.63858365,6.05
152282040337,-0.5545395,-0.67124635,9.958913,-0.04919281,0.030944824,0.06477509,12.87913196,77.63858365,6.05
152282040359,-0.6665207,-0.76588285,9.683261,0.01078186,0.04988098,0.05622101,12.87913196,77.63858365,6.05
152282040380,0.13471527,-1.0884354,8.338852,-0.006074524,0.06405334,0.034236144,12.87913196,77.63858365,6.05
152282040401,-0.6576706,-0.6669388,10.859095,0.0153015135,0.0697937,0.010789489,12.87910953,77.63853219,6.21
152282040422,-0.702652,-0.5130798,10.456859,-0.0049713133,0.08958435,-0.009487915,12.87910953,77.63853219,6.21
152282040444,-0.036253355,-0.96747744,8.845177,0.0519516,0.056230165,-0.0732605,12.87910953,77.63853219,6.21
152282040465,-0.25016937,-1.0010986,10.896303,0.0216568,0.012254333,-0.097817995,12.87910953,77.63853219,6.21
152282040486,-0.419223,-1.3692337,9.085413,-0.014254761,-0.006060791,-0.07350616,12.87910953,77.63853219,6.21
152282040507,-0.39421692,-1.8773483,8.178534,0.06429596,-0.0010620117,-0.054693602,12.87908741,77.63848266,6.2
152282040529,-0.105644226,-1.52034,8.130559,-0.06568909,0.008833313,-0.0732605,12.87908741,77.63848266,6.2
152282040550,-0.38572234,-1.6799424,8.843857,-0.019384766,-0.025733948,-0.082913205,12.87908741,77.63848266,6.2
152282040571,-0.89348143,-1.5053833,9.962622,0.021047974,-0.029023742,-0.04980774,12.87908741,77.63848266,6.2
152282040592,-0.46648255,-1.3281937,9.563382,-0.0022888184,-0.021333313,-0.054937743,12.87908741,77.63848266,6.2
152282040614,-0.27146453,-1.2689743,9.865715,-0.036982726,-0.024015808,-0.054081727,12.87907051,77.63842383,5.99
152282040635,-0.3460037,-1.2805771,9.365372,0.0072402954,-0.047962952,-0.059580993,12.87907051,77.63842383,5.99
152282040656,-0.50775605,-1.7206192,9.569,-0.021470642,-0.09658661,-0.07790222,12.87907051,77.63842383,5.99
152282040677,-0.8178711,-1.7020767,9.425313,0.0014968872,-0.110758975,0.008831787,12.87907051,77.63842383,5.99
152282040698,-0.8161942,-1.613301,10.007845,0.016401673,-0.058958434,0.1138855,12.87904761,77.63837211,5.62
152282040720,-0.54998934,-1.4595627,10.963534,0.035096742,0.054644775,0.146875,12.87904761,77.63837211,5.62
152282040741,0.089968875,-1.9106095,9.445653,0.004676819,0.042793274,0.024098206,12.87904761,77.63837211,5.62
152282040762,-0.25495607,-1.7045883,9.485133,-0.022929382,0.012379455,-0.015841674,12.87904761,77.63837211,5.62
152282040783,-0.1306488,-1.8986435,9.637675,-0.008395386,-0.016201783,-0.029402161,12.87904761,77.63837211,5.62
152282040805,-0.3391861,-1.8182465,9.775981,0.013226318,-0.029762268,0.009567261,12.87903646,77.6383354,5.2
152282040826,-0.31501466,-2.179802,9.980449,0.0030883788,-0.06335907,-0.0047271727,12.87903646,77.6383354,5.2
152282040847,-0.6695129,-2.0057235,9.718434,-0.0554245,-0.09609528,0.039492797,12.87903646,77.6383354,5.2
152282040869,-1.0559524,-2.2399826,9.730159,-0.015235901,-0.04564514,0.21504669,12.87903646,77.6383354,5.2
152282040890,-0.77539366,-2.4576066,9.287125,0.04169464,0.054156493,0.29580536,12.87903646,77.6383354,5.2
152282040911,-0.23090973,-2.1854217,9.883061,0.009559631,0.10314789,0.18046875,12.87901842,77.6383072,4.11
152282040932,8.361816E-4,-2.0046477,9.105153,-0.042845152,0.1081543,0.04169159,12.87901842,77.6383072,4.11
152282040954,-0.22097778,-2.137329,14.546671,-0.17503205,0.07174988,-0.07277374,12.87901842,77.6383072,4.11
152282040975,-0.34755707,-1.1638092,5.9042754,0.14774017,0.06918335,-0.041870117,12.87901842,77.6383072,4.11
152282040996,0.09846344,-2.879106,8.420805,0.3419922,-0.032211304,-0.24760132,12.87900526,77.63828368,3.31
152282041017,0.17563172,0.68345034,9.722502,-0.22011414,-0.051512145,-0.24148865,12.87900526,77.63828368,3.31
152282041039,-0.5234314,0.019442748,9.814387,0.2702774,-0.013394165,-0.10869293,12.87900526,77.63828368,3.31
152282041060,-0.49699098,-0.41114807,10.667786,-0.14008789,-0.04552307,-0.036735535,12.87900526,77.63828368,3.31
152282041081,-0.61758727,0.52396697,9.15325,0.050247192,0.012744141,0.04816284,12.87900526,77.63828368,3.31
152282041102,-0.2005188,0.544545,10.974428,0.05684509,0.0024810792,0.004559326,12.87900449,77.63826131,2.28
152282041123,-0.46217498,0.5196625,10.808843,-0.06409912,-0.026460266,-0.046139527,12.87900449,77.63826131,2.28
152282041145,-0.4054657,0.24221496,9.606212,0.08823852,-0.05223999,-0.04308777,12.87900449,77.63826131,2.28
152282041166,-0.71641237,0.35766906,10.121628,-0.03135681,-0.014125061,0.042546082,12.87900449,77.63826131,2.28
152282041187,-0.74273527,0.34546357,11.014505,0.009811401,0.036442567,0.06563111,12.87900449,77.63826131,2.28
152282041209,0.4372879,0.12568054,11.044775,-0.01376648,-0.001789856,-0.055548094,12.878996,77.63823634,3.05
152282041230,0.31884003,-0.1591858,8.932154,-0.018049622,-0.066409305,-0.09806061,12.878996,77.63823634,3.05
152282041251,-1.0285553,-0.16707611,10.313768,0.014450073,-0.07117462,0.018479919,12.878996,77.63823634,3.05
152282041272,0.21894073,-0.29365692,9.387744,-0.030384827,-0.0066833496,0.12964782,12.878996,77.63823634,3.05
152282041294,-0.4241272,-0.22845307,10.410797,6.469727E-4,0.014942932,0.049998473,12.878996,77.63823634,3.05
152282041315,0.48514253,-0.06717987,9.2439375,-0.015725708,-0.025361633,-0.007901001,12.87898474,77.63820298,3.78
152282041336,-0.653241,-0.44225007,10.426947,-0.04589691,-0.02707367,0.058789063,12.87898474,77.63820298,3.78
152282041357,0.05180359,-0.6931397,8.08031,-0.011933899,0.033387758,0.10985718,12.87898474,77.63820298,3.78
152282041379,-0.21356049,-0.8012924,12.42364,-0.119320676,0.04402008,0.046696473,12.87898474,77.63820298,3.78
152282041400,0.08745575,-0.54502565,8.951416,0.07431488,-0.056271363,-0.079373166,12.87897251,77.63815049,4.52
152282041421,-0.58983153,-0.8592041,11.8080845,-0.040647887,-0.033554077,0.045477293,12.87897251,77.63815049,4.52
152282041442,-0.35078734,-0.86494446,9.848486,-0.018658448,-0.0030166626,0.11877289,12.87897251,77.63815049,4.52
152282041463,-0.31537628,-1.3912475,10.179651,0.04865875,0.0666214,0.12207337,12.87897251,77.63815049,4.52
152282041485,0.07142639,-0.9300324,9.821207,-0.02720642,0.06466675,0.019581605,12.87897251,77.63815049,4.52
152282041506,-0.14440612,-0.7290344,12.677637,0.030581664,0.042311095,-0.048707582,12.87895691,77.63811157,4.82
152282041527,0.08984985,-0.4446457,8.171832,0.38707274,-0.01828003,-0.06788635,12.87895691,77.63811157,4.82
152282041549,-0.32100067,-1.0225128,11.109624,-0.23110504,0.03815918,-0.032460023,12.87895691,77.63811157,4.82
152282041570,-0.21714935,-0.967717,8.72685,0.012135315,-0.06201477,-0.061901856,12.87895691,77.63811157,4.82
152282041591,-0.46468657,-1.4313263,10.241864,0.10363312,-0.03904724,0.0025970459,12.87895691,77.63811157,4.82
152282041612,-0.026441956,-1.1744583,9.684935,-0.143013,-0.018644715,0.02873535,12.87894152,77.63805566,5.02
152282041634,-0.3115433,-1.2918243,9.71245,0.03412018,-0.05150757,-0.028182983,12.87894152,77.63805566,5.02
152282041655,-0.07729034,-2.0738006,9.797399,-0.027449036,-0.0749649,-0.008999634,12.87894152,77.63805566,5.02
152282041676,-0.897789,-1.5550369,9.619011,-0.023301696,-0.016204834,0.10033264,12.87894152,77.63805566,5.02
152282041697,-0.24203491,-1.3661209,10.122824,-0.021469116,0.035464477,0.19623108,12.87892586,77.63801748,4.8
152282041719,0.30723876,-1.0806595,9.98691,-0.041003417,0.06282959,0.07002564,12.87892586,77.63801748,4.8
152282041740,-0.08267212,-1.5601807,10.488684,-0.055059813,0.026669312,0.017019654,12.87892586,77.63801748,4.8
152282041761,0.18496399,-1.1572311,9.674406,0.116708376,-0.0028900146,0.001989746,12.87892586,77.63801748,4.8
152282041782,-0.34815675,-1.1616547,9.561705,0.11572723,-0.009243774,0.02080078,12.87892586,77.63801748,4.8
152282041803,-0.301857,-0.6507858,9.612671,-0.070446774,-0.002520752,0.04449768,12.87890588,77.63798824,4.46
152282041825,-0.19477692,-0.4001419,9.810796,0.012130737,0.006388855,0.039006043,12.87890588,77.63798824,4.46
152282041846,-0.21248475,-0.5160721,10.000669,-0.0010620117,0.042060852,0.04742279,12.87890588,77.63798824,4.46
152282041867,-0.15637207,-0.067056276,10.42647,-0.0017959594,0.052934267,0.008346558,12.87890588,77.63798824,4.46
152282041888,0.16270752,-0.65521395,8.767883,0.008708191,0.039619446,-0.04589691,12.87890588,77.63798824,4.46
152282041910,-0.2726639,-0.10390625,10.845098,-0.011326599,0.021531677,-0.06409912,12.87889522,77.63797304,3.5
152282041931,0.05970154,-1.0810165,8.151614,0.033628844,0.015911866,-0.07778473,12.87889522,77.63797304,3.5
152282041952,-0.28151703,-0.3754944,10.436162,0.026051331,0.017015075,-0.04760895,12.87889522,77.63797304,3.5
152282041974,-0.27457887,-0.39380035,11.009722,0.036927797,0.019824218,-0.099040225,12.87889522,77.63797304,3.5
152282041995,0.029788207,-0.99559325,8.722183,-0.0025299073,0.007855224,-0.11076965,12.87888401,77.63794768,3.55
152282042016,0.04988861,-1.0490738,9.644374,-0.08927002,-0.013517762,-0.10795899,12.87888401,77.63794768,3.55
152282042037,-0.05216217,-1.006244,10.029141,-0.023788452,-0.041366577,-0.117486574,12.87888401,77.63794768,3.55
152282042059,-0.38213196,-1.1293519,9.658139,-0.03222046,-0.09744263,-0.10136108,12.87888401,77.63794768,3.55
152282042080,-0.33391875,-1.1907288,8.020248,-0.24308166,-0.07887421,-0.032215882,12.87888401,77.63794768,3.55
152282042101,-0.46205443,-0.79471743,9.107547,0.07492828,-0.08119812,0.04804535,12.87887277,77.6379393,2.78
152282042122,-0.6208191,-1.9030731,8.039749,0.05586853,-0.07716827,0.10973511,12.87887277,77.6379393,2.78
152282042143,-0.018424988,-0.054856874,10.667906,0.020071412,-0.084373474,0.10875549,12.87887277,77.6379393,2.78
152282042165,-0.40008393,-1.1677536,10.912096,0.21554413,-0.084257506,0.15505676,12.87887277,77.6379393,2.78
152282042186,-0.56075895,-1.2714844,9.839035,-0.119802855,-0.03464966,0.24143524,12.87887277,77.6379393,2.78
152282042207,-0.55250394,-0.76983184,9.879949,0.07651062,0.029234314,0.30606842,12.87886437,77.63791287,2.87
152282042229,-0.24011993,-1.1995819,9.772394,-0.030630494,0.036439516,0.25071868,12.87886437,77.63791287,2.87
152282042249,-0.57081145,-1.1775696,9.676799,0.02972107,0.10937347,0.29934233,12.87886437,77.63791287,2.87
152282042271,0.039361574,-1.2672974,9.916919,0.021899413,0.15030059,0.1997757,12.87886437,77.63791287,2.87
152282042292,0.35042572,-1.3927994,9.655385,-0.023298645,0.15579987,0.031427003,12.87886437,77.63791287,2.87
152282042313,0.43584746,-1.1664398,10.07592,0.058551025,0.07944336,-0.16135255,12.878843,77.63785884,4.62
152282042335,0.028234864,-1.2675354,9.904715,4.0130614E-4,0.033628844,-0.2207245,12.878843,77.63785884,4.62
152282042356,-0.64043885,-1.3962723,9.548662,0.00589447,-0.030255128,-0.20008393,12.878843,77.63785884,4.62
152282042377,0.0997818,-1.1500489,9.86057,0.023609925,-0.07142029,-0.18150482,12.878843,77.63785884,4.62
152282042398,0.30125427,-1.4885162,9.828982,-0.004118347,-0.10648193,-0.11480103,12.87882467,77.63781157,4.44
152282042420,-0.40199584,-1.4406601,9.345991,-0.015846252,-0.16378021,-0.10612793,12.87882467,77.63781157,4.44
152282042441,-1.1730804,-1.3692337,9.907827,0.008462524,-0.18368988,0.09959717,12.87882467,77.63781157,4.44
152282042462,-0.22193451,-1.2230316,9.376142,8.895874E-4,-0.1734314,0.32414857,12.87882467,77.63781157,4.44
152282042484,-1.0040283,-1.3344177,10.623518,0.062458802,-0.16170502,0.42518464,12.87882467,77.63781157,4.44
152282042504,-1.6575089,-1.651825,10.177976,0.08054046,-0.058958434,0.7513809,12.87881286,77.63777491,3.21
152282042526,-0.4084549,-1.5106475,9.538135,0.14993744,0.07052612,0.8799103,12.87881286,77.63777491,3.21
152282042547,0.5676956,-1.0689347,9.532509,0.031309508,0.095085144,0.55553895,12.87881286,77.63777491,3.21
152282042569,0.65443575,-0.404924,10.16996,0.10534821,-0.016203308,0.26648408,12.87881286,77.63777491,3.21
152282042590,-0.8115265,0.11898498,10.559033,0.20088348,-0.10794983,0.23007354,12.87881286,77.63777491,3.21
152282042611,-0.9122635,-0.24424592,12.760669,0.18023834,-0.06641235,0.49360046,12.8787904,77.63775549,2.81
152282042621,-0.18748017,0.42957002,9.785434,0.22812653,0.09434967,0.6762436,12.8787904,77.63775549,2.81
152282042642,0.9272171,-1.6609161,7.9241743,0.07480621,0.14504853,0.44130707,12.8787904,77.63775549,2.81
152282042663,-0.29527587,1.7026733,9.704556,-0.28950197,-0.006678772,0.2855423,12.8787904,77.63775549,2.81
152282042684,-0.63792723,0.20249328,10.863637,0.017626952,-0.040020753,0.3252472,12.87876788,77.63775898,2.63
152282042706,-0.09703217,0.4756317,10.868663,-0.008638,-0.013027954,0.3207245,12.87876788,77.63775898,2.63
152282042727,0.013876343,0.32189482,8.642378,0.00834198,-0.010583496,0.3618988,12.87876788,77.63775898,2.63
152282042748,-0.49256593,0.056889344,10.824518,0.030947875,0.008711243,0.3748474,12.87876788,77.63775898,2.63
152282042769,-0.04665985,0.34319153,10.2064495,0.015795898,0.012013244,0.31363982,12.87876788,77.63775898,2.63
152282042791,-0.12598571,0.45314026,9.910937,0.015672302,-0.022309875,0.26085815,12.87874159,77.63777326,3.05
152282042812,-0.26931304,0.35168457,10.036799,-0.0093688965,-0.036235046,0.28492737,12.87874159,77.63777326,3.05
152282042833,-0.39996034,-0.033558656,9.887248,0.031184386,-0.014494324,0.32622224,12.87874159,77.63777326,3.05
152282042854,-0.41503754,-0.2712845,9.891794,0.04963074,0.09056549,0.37765807,12.87874159,77.63777326,3.05
152282042876,-0.14213562,-0.19303894,9.84944,0.013716126,0.23313904,0.35603637,12.87874159,77.63777326,3.05
152282042897,0.41216126,-0.26578063,9.677638,0.0022338866,0.24486542,0.13307038,12.87871243,77.63779862,4.18
152282042918,-0.030389404,-0.19818573,9.921826,0.014695739,0.16398469,-0.021096801,12.87871243,77.63779862,4.18
152282042939,-0.15134735,-0.010588074,9.9446745,0.00834198,0.09398346,-0.056523133,12.87871243,77.63779862,4.18
152282042961,-0.31071013,-0.13597107,10.166613,0.008830261,0.051959228,-0.08596649,12.87871243,77.63779862,4.18
152282042982,-0.33415833,-0.3595825,9.789739,-0.0042388914,0.03766632,-0.06752167,12.87871243,77.63779862,4.18
152282043003,-0.45379943,-0.21589203,9.803499,0.0060211183,0.02776947,-0.078883365,12.87867971,77.63783296,4.98
152282043024,-0.36359102,-0.48688048,9.848963,0.0077316286,0.028256226,-0.084135436,12.87867971,77.63783296,4.98
152282043046,-0.25447693,-0.6688568,9.817975,0.014450073,0.009687806,-0.09745331,12.87867971,77.63783296,4.98
152282043067,-0.35892335,-0.41820678,10.025075,0.018232727,-0.030859375,-0.119932555,12.87867971,77.63783296,4.98
152282043088,-0.421019,-0.75739133,9.717596,0.024224853,-0.05969391,-0.11272278,12.87864246,77.63786792,4.97
152282043109,-0.1499115,-0.6217148,10.002581,0.0010116578,-0.07532959,-0.09354401,12.87864246,77.63786792,4.97
152282043131,-0.22624207,-0.77940214,9.387627,-8.392334E-5,-0.062504575,-0.053471375,12.87864246,77.63786792,4.97
152282043152,-0.6737,-0.26410675,10.2567005,-0.0054611205,-0.05834656,-0.037345886,12.87864246,77.63786792,4.97
152282043173,-0.27075043,-0.7552322,9.385353,0.0032058717,-0.066897586,-0.02243805,12.87864246,77.63786792,4.97
152282043194,0.08626099,-0.6090317,10.106073,0.0054122927,-0.069955446,0.0028518676,12.87859366,77.63792329,5.09
152282043216,-0.6191467,-0.34498596,10.322981,0.026914978,-0.0374588,0.034236144,12.87859366,77.63792329,5.09
152282043237,-0.6725052,-0.76743925,9.637917,-0.0030197143,0.030456543,0.064408876,12.87859366,77.63792329,5.09
152282043258,-0.45535582,-0.8532211,9.485374,-0.006806946,0.07822571,0.051461793,12.87859366,77.63792329,5.09
152282043279,-0.39661407,-0.52660066,9.911055,0.0139602665,0.07883453,-0.0230484,12.87859366,77.63792329,5.09
152282043301,-0.47019044,-0.74984896,9.511694,0.012493896,0.038394164,-0.05774536,12.87854369,77.63796344,6.39
152282043322,-0.45487672,-0.43710786,10.203339,0.013102722,3.967285E-5,-0.071063235,12.87854369,77.63796344,6.39
152282043343,-0.19669342,-0.4677368,10.322382,0.003453064,-0.020108033,-0.055426024,12.87854369,77.63796344,6.39
152282043364,0.23054656,-0.626857,9.888205,-0.010224914,-0.03073883,-0.052862547,12.87854369,77.63796344,6.39
152282043386,-0.02357025,-0.52336884,9.633249,-0.024891663,-0.05749359,-0.05005188,12.8784885,77.63799347,6.64
152282043407,-0.6692734,-0.82414705,9.235919,0.003819275,-0.07080688,-0.025495911,12.8784885,77.63799347,6.64
152282043428,-0.12741852,-0.5244461,10.231337,-0.02293396,-0.062135316,0.0052902224,12.8784885,77.63799347,6.64
152282043449,-0.19250336,-0.8959335,9.024874,-0.020120239,-0.027197266,0.04058685,12.8784885,77.63799347,6.64
152282043471,-0.34540558,-0.6159729,10.180608,-0.012426758,-4.5166016E-4,0.04498291,12.8784885,77.63799347,6.64
152282043492,0.22253112,-0.9760925,9.201586,-0.011940002,-0.005088806,0.01799469,12.87844223,77.63803152,6.76
152282043513,-0.35820466,-0.35635072,10.30372,-0.010591125,-0.011314392,0.021780396,12.87844223,77.63803152,6.76
152282043534,-0.07525482,-0.9336212,9.42232,0.005041504,-0.0036239624,0.030207824,12.87844223,77.63803152,6.76
152282043556,-0.1322052,-0.8572906,10.12665,0.003453064,0.0057785036,0.04229889,12.87844223,77.63803152,6.76
152282043578,-0.23246613,-1.1991012,10.0140705,0.024465943,0.023368835,0.039611816,12.87844223,77.63803152,6.76
152282043598,-0.38261414,-1.0992005,9.720706,-0.023060609,0.041204832,0.028617859,12.87839147,77.63806946,6.91
152282043619,0.30245057,-0.98207396,9.27002,0.020680238,0.031066895,0.004928589,12.87839147,77.63806946,6.91
152282043616,-0.42078096,-1.3268783,10.778096,0.0013717652,0.026669312,-0.01901703,12.87839147,77.63806946,6.91
152282043638,-0.25172576,-1.0235885,9.468506,0.012001038,-0.011071777,-0.02659607,12.87839147,77.63806946,6.91
152282043659,0.084703065,-1.0086334,9.601065,0.002355957,-0.006190491,0.0010162353,12.87834462,77.63810624,6.91
152282043680,-0.11832581,-1.9033127,8.597639,7.659912E-4,0.00761261,0.0074951174,12.87834462,77.63810624,6.91
152282043701,0.12633972,-1.2404983,9.865354,0.027641296,0.007737732,-0.007168579,12.87834462,77.63810624,6.91
152282043722,0.22193298,-1.8391815,9.345393,-0.040031433,0.007118225,-0.020361328,12.87834462,77.63810624,6.91
152282043743,-0.22049865,-1.2132202,9.836996,0.0049224854,-0.025119018,-0.025616456,12.87834462,77.63810624,6.91
152282043765,-0.077645876,-1.5855423,9.716517,-0.036613464,-0.032936096,-0.0317276,12.87829361,77.63814532,6.66
152282043786,-0.41060942,-1.0807755,9.87588,0.01640625,-0.06347656,-8.392334E-5,12.87829361,77.63814532,6.66
152282043807,-0.065805055,-1.8425324,9.984035,-0.15903473,-0.025245667,0.07638397,12.87829361,77.63814532,6.66
152282043829,-0.264769,-0.2236679,10.868068,-0.055796813,0.0063949586,0.032528687,12.87829361,77.63814532,6.66
152282043850,-0.115335084,-1.4849228,11.652191,0.010299683,0.01714325,0.065022275,12.87829361,77.63814532,6.66
152282043871,-0.08817597,-0.5398804,10.096621,0.0015014649,0.036808778,0.058668517,12.8782499,77.63817783,6.21
152282043892,-0.54365236,-0.8393402,9.9657345,0.026542664,0.0763916,0.042787172,12.8782499,77.63817783,6.21
152282043913,0.589708,-1.0243088,8.833689,0.003453064,0.06796112,-0.024026489,12.8782499,77.63817783,6.21
152282043935,0.1164093,-0.6871567,10.665993,0.01652832,0.044503786,-0.053103637,12.8782499,77.63817783,6.21
152282043956,-0.5584839,-0.72508395,10.287689,0.002105713,0.03412323,-0.057991028,12.8782499,77.63817783,6.21
152282043977,-0.20674285,-0.9793213,9.773109,-0.0038711547,0.025445556,-0.05591736,12.87820725,77.63821319,6.09
152282043998,0.07991791,-2.2664216,9.38954,-0.0072982786,-0.016693115,-0.08596649,12.87820725,77.63821319,6.09
152282044020,-0.06831817,-1.0135406,10.327647,0.0061401366,-0.057125855,-0.099407956,12.87820725,77.63821319,6.09
152282044041,-0.12705994,-1.368277,9.78268,5.218506E-4,-0.07862854,-0.0719223,12.87820725,77.63821319,6.09
152282044062,-0.2531616,-1.1750549,9.851118,-0.0020446777,-0.0782608,-0.0191391,12.87815662,77.63824798,6.06
152282044083,-0.33379975,-1.0446472,10.017059,0.0033294677,-0.033059694,0.038269043,12.87815662,77.63824798,6.06
152282044105,0.17551117,-1.204245,9.162582,0.0024810792,0.010545349,0.03435669,12.87815662,77.63824798,6.06
152282044126,-0.44147795,-0.75188446,10.568723,-2.0446777E-4,0.0110321045,0.006878662,12.87815662,77.63824798,6.06
152282044147,0.030628968,-0.29521638,10.461884,-0.015600586,-0.025242615,-0.018164063,12.87815662,77.63824798,6.06
152282044168,0.5291702,-1.3197021,7.4091215,0.0034561157,-0.050894164,-0.016210938,12.87811605,77.63826893,5.65
152282044190,-0.1861618,-1.7197831,7.8295393,-0.03746643,-0.05089722,0.036071777,12.87811605,77.63826893,5.65
152282044211,-0.26034087,-1.4475998,10.179652,0.050735474,-0.005819702,0.084443666,12.87811605,77.63826893,5.65
152282044233,-0.22133636,-1.762851,6.3987517,-0.034291077,0.07284699,0.11486511,12.87811605,77.63826893,5.65
152282044253,0.21882324,-0.030567933,10.019214,-0.12298584,0.073826596,0.05549469,12.87811605,77.63826893,5.65
152282044275,-0.1757553,-1.2172883,10.351453,0.25047913,0.08359985,-0.018902589,12.87807346,77.63830826,5.56
152282044296,0.0031097413,-0.7820358,10.005575,-0.10990753,0.04988098,-0.015968323,12.87807346,77.63830826,5.56
152282044317,0.07022858,-0.51906127,8.734385,0.06344147,0.035829164,-0.043943785,12.87807346,77.63830826,5.56
152282044338,-0.2653656,-0.77461547,10.773549,-0.03172455,0.06307526,-0.029650878,12.87807346,77.63830826,5.56
152282044360,-0.11880646,-0.22953339,9.8481245,-0.01181488,0.0030929565,-0.10942535,12.87807346,77.63830826,5.56
152282044381,-0.109233096,-0.5690735,10.332672,0.033018492,-0.049794007,-0.13850097,12.87803177,77.6383377,5.58
152282044402,-0.096551515,-0.5167877,9.465871,-0.052862547,-0.14020233,-0.115046695,12.87803177,77.6383377,5.58
152282044423,-0.5136215,-0.22689971,9.758275,0.011276245,-0.16793823,-0.013153076,12.87803177,77.6383377,5.58
152282044445,-0.3988861,-0.4198807,9.963939,-0.030018616,-0.12578583,0.09763794,12.87803177,77.6383377,5.58
152282044466,-0.3540222,-0.30215454,9.788426,-8.544922E-5,-0.04662018,0.13758545,12.87798353,77.63836531,5.68
152282044487,-0.25364074,-0.501474,9.908542,0.005532837,0.026177978,0.15041657,12.87798353,77.63836531,5.68
152282044508,-0.017228698,-0.45122528,9.788785,-0.015351867,0.06234131,0.10716705,12.87798353,77.63836531,5.68
152282044530,0.13447571,-0.6567688,9.7292,0.008589173,0.07651367,0.06941986,12.87798353,77.63836531,5.68
152282044551,0.039241027,-0.70139617,9.756241,6.4849854E-4,0.0855545,0.05231323,12.87798353,77.63836531,5.68
152282044572,-0.12382813,-0.7010361,9.847525,0.019828796,0.07724609,-2.0751954E-4,12.87794183,77.63839294,5.36
152282044593,0.037924193,-0.7820358,10.072334,0.017504882,0.034117125,-0.03478241,12.87794183,77.63839294,5.36
152282044615,0.18747711,-0.6589249,9.661847,-0.010713195,0.0010177612,-0.034043886,12.87794183,77.63839294,5.36
152282044636,-0.3315277,-0.14637908,10.224516,2.7923583E-4,-0.024388123,-0.02231903,12.87794183,77.63839294,5.36
152282044657,-0.18125764,-0.6768662,9.540769,-0.02281189,-0.056884766,-0.025128175,12.87794183,77.63839294,5.36
152282044678,0.036729433,-0.76827085,9.788183,0.010420227,-0.06641235,0.014326477,12.8778936,77.63842438,6.1
152282044700,-0.10744019,-0.6670593,10.099251,-0.012057495,-0.026341248,0.06343689,12.8778936,77.63842438,6.1
152282044721,-0.3781891,-0.33983764,9.920029,-0.006689453,0.03741608,0.082733154,12.8778936,77.63842438,6.1
152282044742,-0.20602569,-0.46570128,10.315206,0.0021087646,0.08824158,0.05769043,12.8778936,77.63842438,6.1
152282044763,0.09726562,-0.581395,9.906748,0.009199524,0.07174835,-0.017918397,12.8778484,77.63846345,6.45
152282044785,0.16713715,-0.4796997,10.255743,0.0072418214,0.026789855,-0.053471375,12.8778484,77.63846345,6.45
152282044806,0.35736695,-0.73358154,9.681105,-0.0011901855,-0.017051697,-0.052371215,12.8778484,77.63846345,6.45
152282044827,-0.48275605,-0.81720734,9.664238,0.012495423,-0.015467835,-0.023905944,12.8778484,77.63846345,6.45
152282044848,-0.34061736,-0.67303926,9.782682,-0.0061935424,0.0013793946,-0.011689758,12.8778484,77.63846345,6.45
152282044870,0.21044922,-0.6068802,10.180133,0.0068725585,-0.0070465086,-0.032336425,12.8777998,77.63851316,6.7
152282044891,-0.20793763,-0.8583649,9.448881,0.0010162353,-0.031715393,-0.034169007,12.8777998,77.63851316,6.7
152282044912,-0.09619446,-0.80990905,10.128444,0.009565735,-0.050408937,-0.024153138,12.8777998,77.63851316,6.7
152282044933,-0.11653137,-0.73465425,9.619731,-0.008273316,-0.061402895,-0.0019134522,12.8777998,77.63851316,6.7
152282044955,-0.36012116,-0.58450776,10.053789,-0.011079406,-0.05089569,0.03387146,12.8777998,77.63851316,6.7
152282044976,-0.16271362,-0.916391,9.74954,0.0063827513,-0.0136383055,0.054879762,12.87775004,77.63856226,6.81
152282044997,-0.059700012,-0.918544,10.099132,0.013104248,0.009072876,0.054757692,12.87775004,77.63856226,6.81
152282045018,-0.32769775,-0.67471313,9.561704,-0.0033889771,0.033750914,0.04657135,12.87775004,77.63856226,6.81
152282045040,0.043548584,-0.56189424,10.077959,-0.014378357,0.05830841,0.044618227,12.87775004,77.63856226,6.81
152282045061,-0.21870728,-0.74530184,9.886409,0.004548645,0.07516937,0.018118287,12.87771569,77.63858571,6.53
152282045082,0.2688324,-0.95575106,9.555484,0.009686279,0.043771364,-0.04406128,12.87771569,77.63858571,6.53
152282045103,0.11281891,-0.8071579,10.180727,-0.011447144,0.004194641,-0.049194336,12.87771569,77.63858571,6.53
152282045125,-0.32099915,-0.864946,9.463358,0.0054107667,-0.019743348,-0.03148041,12.87771569,77.63858571,6.53
152282045146,-0.17300263,-0.556752,10.215782,0.012249756,-0.013513183,-0.010713195,12.87771569,77.63858571,6.53
152282045167,1.1749267E-4,-0.94031984,9.881267,0.002357483,-0.0028915405,-0.0123001095,12.87766904,77.63862829,6.63
152282045188,-0.38668212,-0.7039093,9.871574,-0.038565062,0.021176148,0.004676819,12.87766904,77.63862829,6.63
152282045209,-0.33081055,-1.0566117,9.482142,0.017138671,0.05708771,-0.0026474,12.87766904,77.63862829,6.63
152282045231,0.26321107,-1.1945556,9.781606,-5.767822E-4,0.067836,-0.03086853,12.87766904,77.63862829,6.63
152282045252,0.14679718,-1.1352142,9.7979965,0.040475465,0.029725647,-0.095739745,12.87766904,77.63862829,6.63
152282045273,-0.28522643,-1.076709,9.725253,-0.044796754,-0.021458436,-0.10111694,12.87761118,77.63867645,7.13
152282045294,-0.07310333,-0.93230283,9.44314,0.0027236938,-0.057247926,-0.08889923,12.87761118,77.63867645,7.13
152282045316,0.20003815,-1.0843658,9.942761,-0.006929016,-0.09841919,-0.06764374,12.87761118,77.63867645,7.13
152282045337,-0.29719085,-0.7225739,9.95652,0.008706665,-0.11271362,-0.020729065,12.87761118,77.63867645,7.13
152282045358,-0.23928528,-1.1102097,9.745712,0.024099732,-0.0764267,0.03582306,12.87761118,77.63867645,7.13
152282045379,-0.28749543,-0.7510468,9.609799,-0.013034058,-0.027076721,0.070394896,12.87758418,77.63868406,6.06
152282045409,-0.053240966,-0.83647,9.998396,0.021897888,0.025933838,0.07943573,12.87758418,77.63868406,6.06
152282045430,0.07692871,-0.73549193,10.227388,0.003453064,0.062217712,0.04376068,12.87758418,77.63868406,6.06
152282045452,0.039361574,-0.6602386,10.113848,0.005166626,0.059898376,0.0151901245,12.87758418,77.63868406,6.06
152282045473,0.013157654,-0.8586029,9.938932,0.0013793946,0.03607788,-0.013278198,12.87752505,77.63873872,6.95
152282045494,-0.21296234,-0.82007754,9.579771,-0.0027770996,-0.008262634,-0.034169007,12.87752505,77.63873872,6.95
152282045515,-0.21954194,-0.9789627,9.8177395,7.69043E-4,-0.024992371,-0.008026123,12.87752505,77.63873872,6.95
152282045537,-0.09140472,-0.8521439,9.859972,0.0034576417,-0.01840515,0.011642456,12.87752505,77.63873872,6.95
152282045558,0.04916992,-0.83766633,9.596998,0.010420227,0.010301208,0.027275085,12.87752505,77.63873872,6.95
152282045579,-0.2883362,-0.28779602,10.0908785,-0.014016723,0.0059051514,0.007858276,12.87747617,77.63878733,7.06
152282045600,-0.06891479,-0.8294113,9.700369,0.007733154,-0.0016723633,-4.5013428E-4,12.87747617,77.63878733,7.06
152282045622,-0.12179718,-0.88241273,9.902679,0.007733154,-3.2653808E-4,0.0018676758,12.87747617,77.63878733,7.06
152282045643,-0.07980347,-0.891626,9.608129,-0.006808472,0.0068771364,0.010916138,12.87747617,77.63878733,7.06
152282045664,-0.18975219,-0.7067795,10.104993,0.023120116,0.01860199,0.002973938,12.87747617,77.63878733,7.06
152282045685,-0.20602265,-0.5831879,10.044098,-0.03734436,0.028990174,0.003213501,12.87742265,77.63884223,7.02
152282045707,-0.071546935,-0.756073,9.603699,0.008583069,0.020195007,-0.0138900755,12.87742265,77.63884223,7.02
152282045728,-0.29108888,-0.95898134,9.883899,0.027888488,-0.004232788,-0.03355713,12.87742265,77.63884223,7.02
152282045749,-0.23988342,-0.9455841,9.760068,-0.044674683,-0.02010498,-0.015719604,12.87742265,77.63884223,7.02
152282045770,-0.14380951,-0.7340576,9.387388,-0.0063171387,-0.02279663,-0.008267212,12.87736349,77.63889074,7.29
152282045792,-0.4305893,-0.44392854,10.157156,0.009318543,-0.009973144,0.007371521,12.87736349,77.63889074,7.29
152282045813,-0.2000412,-0.8570496,9.689241,-0.015364075,0.015797425,0.018733215,12.87736349,77.63889074,7.29
152282045834,-0.2510086,-0.9154358,9.544355,5.218506E-4,0.044381715,0.017993163,12.87736349,77.63889074,7.29
152282045855,-0.12359314,-0.96077573,9.930797,0.008337403,0.054644775,-0.01682129,12.87736349,77.63889074,7.29
152282045877,0.044267274,-0.98111725,9.663638,0.00907135,0.033387758,-0.03905487,12.8773098,77.63894013,7.26
152282045898,-0.2861847,-0.5737381,10.01993,0.011398315,0.02544861,-0.048094176,12.8773098,77.63894013,7.26
152282045919,-0.22540589,-0.81266177,10.000549,-2.0446777E-4,0.011521911,-0.052737426,12.8773098,77.63894013,7.26
152282045941,0.030265808,-0.9351715,9.798592,-0.0049743652,0.0070007322,-0.045040894,12.8773098,77.63894013,7.26
152282045962,-0.14440766,-0.81589204,9.825396,0.010787964,-0.02010498,-0.05860443,12.8773098,77.63894013,7.26
152282045983,-0.117248535,-1.0387847,9.627505,0.004798889,-0.0335495,-0.05041504,12.87723898,77.63900287,7.62
152282046004,-0.3352356,-0.61573184,9.911898,0.012252808,-0.05822601,-0.05065918,12.87723898,77.63900287,7.62
152282046025,-0.13029175,-0.9406799,9.797157,0.0022354126,-0.08791351,-0.04174347,12.87723898,77.63900287,7.62
152282046047,-0.14895324,-0.7831116,9.658257,-0.008270264,-0.09951935,-9.368897E-4,12.87723898,77.63900287,7.62
152282046068,-0.25232393,-0.9254837,9.829462,0.0034561157,-0.07679443,0.039241027,12.87717876,77.63903226,7.49
152282046089,-0.0742981,-0.86638033,9.652629,-0.0119369505,-0.057369996,0.06978607,12.87717876,77.63903226,7.49
152282046110,-0.28713837,-0.59263915,10.177498,0.009197998,-0.023652649,0.082855225,12.87717876,77.63903226,7.49
152282046132,-0.31107026,-0.73501587,9.892153,-0.033314515,0.025933838,0.10435943,12.87717876,77.63903226,7.49
152282046153,-0.28881684,-0.82929385,9.579531,0.004678345,0.07895966,0.09543915,12.87717876,77.63903226,7.49
152282046174,-0.19035034,-0.8843277,9.7788515,-0.013279724,0.12672576,0.07992401,12.8771361,77.63905804,6.96
152282046195,0.25471497,-0.8694931,9.54926,0.025320435,0.11902924,-0.0047271727,12.8771361,77.63905804,6.96
152282046216,0.025839234,-0.6919464,10.285892,2.761841E-4,0.081767276,-0.056890868,12.8771361,77.63905804,6.96
152282046238,0.012200927,-0.88588256,9.576899,0.001498413,0.01408844,-0.08951111,12.8771361,77.63905804,6.96
152282046259,0.02619934,-1.2073562,9.755285,-0.037709046,-0.06946411,-0.106126405,12.8771361,77.63905804,6.96
152282046280,-0.03086853,-1.4068009,8.307028,-0.021955872,-0.13641357,-0.065568544,12.87708426,77.63909614,7.03
152282046302,-0.13244171,-1.7015946,7.987587,-0.007662964,-0.090968326,0.06599732,12.87708426,77.63909614,7.03
152282046323,-0.3497116,-1.6574478,9.7439165,0.007974243,0.020932008,0.098249815,12.87708426,77.63909614,7.03
152282046344,0.048332214,-1.0864029,10.363298,0.004550171,0.101313785,0.06416626,12.87708426,77.63909614,7.03
152282046365,-0.31800842,-1.2566483,9.913208,0.013471985,0.0904419,-0.030010987,12.87703238,77.63912535,6.72
152282046387,0.1349533,-1.4185257,10.400747,0.011024475,0.02190094,-0.07766571,12.87703238,77.63912535,6.72
152282046408,-0.036730956,-1.7019562,9.389422,-0.0021697998,-0.033914186,-0.05909271,12.87703238,77.63912535,6.72
152282046429,-0.5559738,-1.068814,9.260927,0.020558167,-0.022921752,-0.00986023,12.87703238,77.63912535,6.72
152282046450,-0.55597687,-1.1733795,10.082263,-0.003755188,-0.012536621,-0.012298584,12.87703238,77.63912535,6.72
152282046471,-0.8366531,-1.3027115,10.00976,-0.007174683,-0.005331421,-0.020362854,12.87697568,77.63914752,6.6
152282046493,-0.13519593,-1.9191024,9.223956,-0.005102539,-0.0039916993,-0.015600586,12.87697568,77.63914752,6.6
152282046514,-0.35832673,-1.9388443,9.776341,-0.031848144,-0.01656189,-0.027082825,12.87697568,77.63914752,6.6
152282046535,-0.15373841,-2.0349152,9.336899,-9.002686E-5,-0.029150391,-0.0059463503,12.87697568,77.63914752,6.6
152282046557,-0.38369292,-1.9938781,9.91644,-0.009986877,-0.03428192,0.010299683,12.87697568,77.63914752,6.6
152282046578,-0.5950958,-2.1868591,9.659329,0.010049438,0.022145081,0.06086426,12.87694004,77.63917348,5.92
152282046599,-0.055036925,-2.2780242,9.536581,-0.022937011,0.06283112,0.04132233,12.87694004,77.63917348,5.92
152282046620,0.13961792,-2.3118865,9.856502,0.043769836,0.05647888,-0.032458495,12.87694004,77.63917348,5.92
152282046641,-0.06748047,-2.2311263,9.698215,-0.007055664,0.018972779,-0.06715546,12.87694004,77.63917348,5.92
152282046663,-0.42065734,-2.227658,9.4759245,-0.0052230833,-0.014248657,-0.057380676,12.87694004,77.63917348,5.92
152282046684,-0.38010103,-2.2310073,10.037999,0.010171508,0.0044387816,-0.023051452,12.87690234,77.6391837,5.32
152282046705,-0.3443283,-2.0759537,9.515762,-0.023054505,0.011515808,-0.036369324,12.87690234,77.6391837,5.32
152282046727,0.17024842,-2.3851044,9.862363,0.009562683,0.0129852295,-0.050538637,12.87690234,77.6391837,5.32
152282046748,0.017703246,-2.4171677,9.579529,-0.0043655396,-0.06238098,-0.1699005,12.87690234,77.6391837,5.32
152282046769,-1.0101318,-2.1681976,9.630377,0.0063827513,-0.1232193,-0.12322998,12.87687842,77.63919269,3.74
152282046790,-0.7594818,-2.072122,9.658254,0.010173035,-0.079237364,0.13551179,12.87687842,77.63919269,3.74
152282046811,-0.45726624,-1.3359741,6.515283,-0.2025299,0.026669312,0.23203126,12.87687842,77.63919269,3.74
152282046833,-0.025724793,-1.1465759,17.117283,0.12465515,0.13014373,0.18437652,12.87687842,77.63919269,3.74
152282046854,0.5870773,-0.7191025,4.6316543,0.14944915,0.030583192,-0.06776581,12.87687842,77.63919269,3.74
152282046875,-1.1286957,-4.952605,15.465754,0.09594116,0.08678131,-0.13154145,12.87685288,77.63921259,2.92
152282046896,-0.45882568,1.0359147,7.5995893,-0.19897309,-0.09830475,0.045965575,12.87685288,77.63921259,2.92
152282046918,-0.72610474,0.4432129,9.582761,0.2106659,0.024105836,-0.06324615,12.87685288,77.63921259,2.92
152282046939,-0.15852508,-0.7569092,11.829503,-0.17295074,0.031072998,0.06624298,12.87685288,77.63921259,2.92
152282046960,-0.38141632,0.9376892,8.73941,0.0829895,0.12953492,0.03692932,12.87685288,77.63921259,2.92
152282046982,0.563269,-0.26231232,11.223041,0.102293395,0.03668823,-0.22060089,12.87683113,77.63922509,1.92
152282047003,0.2079361,-0.47240296,8.391016,-0.071669005,-0.08351441,-0.27484742,12.87683113,77.63922509,1.92
152282047024,-1.4082992,-0.1679184,10.041226,0.081639096,-0.07789459,-0.09464417,12.87683113,77.63922509,1.92
152282047045,-0.65049136,-0.4725235,9.458455,-0.07485046,0.065640256,0.18792419,12.87683113,77.63922509,1.92
152282047067,0.61196136,-0.32835692,9.759707,0.032162476,0.080178834,-0.05091095,12.87683113,77.63922509,1.92
152282047088,0.065560915,-0.20847473,10.769483,-0.00362854,-0.0067977905,-0.27778015,12.87680486,77.63924352,2.12
152282047109,-0.2775696,-0.24999085,9.194287,0.014936829,-0.11894073,-0.21791382,12.87680486,77.63924352,2.12
152282047130,-1.205864,-0.38147584,9.9110565,0.00834198,-0.10318299,4.0130614E-4,12.87680486,77.63924352,2.12
152282047151,-0.7962128,-0.3751343,9.676081,-0.028427124,0.024348449,0.18535614,12.87680486,77.63924352,2.12
152282047173,0.22097626,-0.28624114,10.160031,0.008462524,0.05647583,0.0203125,12.87677172,77.63925517,3.36
152282047194,-0.26225585,-0.6439682,9.406769,-0.008639527,0.07284851,-0.0025299073,12.87677172,77.63925517,3.36
152282047215,0.2532776,-0.18131867,10.520149,0.02263794,-0.02928009,-0.16550446,12.87677172,77.63925517,3.36
152282047237,-0.9151352,-0.25824434,11.672414,0.011639404,-0.1559616,-0.17198333,12.87677172,77.63925517,3.36
152282047258,-1.2897323,0.18693848,11.273048,-0.026228333,-0.1529068,0.09433899,12.87677172,77.63925517,3.36
152282047279,-0.5517853,0.12006073,10.225713,0.001991272,-0.06225586,0.19122162,12.8767329,77.6392712,3.91
152282047300,-0.70229495,0.06705932,11.082703,0.007487488,0.0046813963,0.21162263,12.8767329,77.6392712,3.91
152282047322,-0.40331268,0.03894348,11.825914,2.822876E-4,0.027404785,0.15310363,12.8767329,77.6392712,3.91
152282047343,-0.26524505,-0.02147522,9.994565,0.0059020994,0.072480775,0.13868865,12.8767329,77.6392712,3.91
152282047364,-0.025604248,-1.0981232,8.885492,0.0076065063,0.13332215,0.12793732,12.8767329,77.6392712,3.91
152282047385,-0.25938416,-0.35934144,9.93965,0.014331055,0.08653259,-0.058236696,12.87670287,77.63929053,3.97
152282047406,-0.019741822,-0.104148865,10.384836,-0.002406311,0.025320435,-0.07558441,12.87670287,77.63929053,3.97
152282047428,-0.386084,-0.8294113,9.058375,0.005899048,-0.01815338,-0.09488525,12.87670287,77.63929053,3.97
152282047449,-0.11329956,-0.579599,9.39887,0.014208985,-0.013760376,-0.023173522,12.87670287,77.63929053,3.97
152282047470,-0.30748138,-0.300119,10.86376,-0.011326599,-0.003503418,-0.032214355,12.87666636,77.63929996,3.89
152282047491,-0.27517396,-0.31638947,10.016223,0.012251282,-0.042710878,-0.08377075,12.87666636,77.63929996,3.89
152282047513,-0.36024323,-0.32608184,9.848722,-0.025985718,-0.0798523,-0.043577574,12.87666636,77.63929996,3.89
152282047534,-0.5023758,-0.10510407,9.730879,-0.016456604,-0.094630435,0.0017501831,12.87666636,77.63929996,3.89
152282047555,-0.6090927,-0.3687912,9.962502,-0.0022872924,-0.06995392,0.07589264,12.87666636,77.63929996,3.89
152282047576,-0.5203186,-0.31184387,9.195125,-0.07961426,-0.044178773,0.103012085,12.87663395,77.63931408,4.19
152282047598,-0.44255525,-0.005085754,9.596519,0.02508087,-0.0075332643,0.12671661,12.87663395,77.63931408,4.19
152282047619,-0.12789765,-0.6091522,10.104395,0.0017456055,0.06673737,0.14003143,12.87663395,77.63931408,4.19
152282047640,-0.16953126,-0.43016967,9.670695,-0.026231384,0.09251861,0.07980347,12.87663395,77.63931408,4.19
152282047661,-0.12801819,-0.4475174,10.051636,0.053297423,0.09300385,0.032284547,12.87663395,77.63931408,4.19
152282047683,0.13016815,-0.8413757,10.041944,-5.7525636E-4,0.069186404,-0.032458495,12.87659984,77.63933624,4.02
152282047704,-0.04008026,-0.99774474,9.878275,0.023980713,-0.009362793,-0.082791135,12.87659984,77.63933624,4.02
152282047725,-0.12705842,-0.87511444,10.042305,0.019947816,-0.05187378,-0.040522765,12.87659984,77.63933624,4.02
152282047747,-0.120240785,-0.56823426,9.655142,0.009439087,-0.070201114,1.6174317E-4,12.87659984,77.63933624,4.02
152282047768,-0.58552396,-0.51762545,10.023041,0.0013763427,-0.031106567,0.060253907,12.87659984,77.63933624,4.02
152282047789,-0.4051056,-0.3835098,9.814264,-0.0058273314,0.023129273,0.06978302,12.87654658,77.63935951,5.35
152282047810,-0.039604187,-0.55411834,9.969084,-0.010591125,0.04474945,0.031062316,12.87654658,77.63935951,5.35
152282047831,-0.32159728,-0.29880372,10.132152,0.01322937,0.02557068,-0.0019180297,12.87654658,77.63935951,5.35
152282047853,-0.33631134,-0.55866396,9.517914,-0.021829223,0.008705139,-0.0064346315,12.87654658,77.63935951,5.35
152282047874,-0.085545346,-0.53533477,9.657298,0.010665894,0.0018707275,0.0028472901,12.87649473,77.63938883,6.03
152282047895,-0.046183776,-0.39188537,9.908304,0.021044921,-0.006922913,-0.003503418,12.87649473,77.63938883,6.03
152282047916,-0.20363006,-0.5316223,9.715204,-0.015605164,-0.0047195433,0.011521911,12.87649473,77.63938883,6.03
152282047937,-0.556575,-0.5193008,9.78902,0.023246765,0.0414505,0.03326111,12.87649473,77.63938883,6.03
152282047959,-0.52092135,-0.49836272,10.162662,-0.008763122,0.10192718,0.020188903,12.87649473,77.63938883,6.03
152282047981,0.29826203,-0.54191434,9.877199,0.008708191,0.08396454,-0.059828185,12.87643539,77.6394223,7.01
152282048002,0.15301971,-0.92237395,9.700968,0.013230896,0.009327698,-0.13495788,12.87643539,77.6394223,7.01
152282048023,-0.22409058,-0.5872574,9.898137,0.0034545898,-0.06690063,-0.12017517,12.87643539,77.6394223,7.01
152282048044,-0.47222748,-0.52779543,9.696541,-0.0011886597,-0.10880127,-0.067276,12.87643539,77.6394223,7.01
152282048065,-0.50548553,-0.8432892,9.829702,-0.026350403,-0.09743957,0.022634888,12.87643539,77.6394223,7.01
152282048087,-0.4309494,-0.7734207,9.621405,-0.006929016,-0.07667236,0.036315918,12.87638631,77.63946208,7.0
152282048107,-0.45822603,-0.6253067,9.90639,-0.009251404,-0.012542725,0.0861557,12.87638631,77.63946208,7.0
152282048129,-0.3812973,-0.67375946,10.013708,-0.010226441,0.060142517,0.10350189,12.87638631,77.63946208,7.0
152282048150,-0.29108733,-0.6261444,10.195803,0.006629944,0.13161317,0.06294098,12.87638631,77.63946208,7.0
152282048171,0.16881561,-0.6896698,9.861165,0.0057769776,0.116098024,-0.043089293,12.87633562,77.63949985,7.03
152282048193,0.11042633,-0.7717453,9.981646,0.0065078735,-4.470825E-4,-0.11968994,12.87633562,77.63949985,7.03
152282048214,-0.4995041,-0.7991425,9.899211,-0.02659912,-0.05798187,-0.065568544,12.87633562,77.63949985,7.03
152282048235,-0.4896942,-0.98315126,9.571756,-0.011201477,-0.032693483,-0.008880615,12.87633562,77.63949985,7.03
152282048256,-0.34073943,-1.0624726,10.019092,0.022514343,-0.0011810303,-0.012788391,12.87633562,77.63949985,7.03
152282048277,-0.21535492,-1.3156341,10.015625,-0.0024093627,-0.005085754,-0.03563385,12.87627304,77.63952034,7.17
152282048299,-0.13124847,-1.4393432,9.643179,-0.0043624877,-0.021327209,-0.041986085,12.87627304,77.63952034,7.17
152282048320,-0.16402587,-0.8917435,9.435722,-0.032580566,-0.032691956,-0.024276733,12.87627304,77.63952034,7.17
152282048341,-0.29168853,-1.1019516,9.137695,-0.025857544,-0.038313292,-0.018167114,12.87627304,77.63952034,7.17
152282048363,-0.3460037,-0.8419754,9.887487,0.0070007322,-0.04613342,0.012863159,12.87627304,77.63952034,7.17
152282048384,-0.23174591,-1.3015168,9.9638195,0.09825897,-0.005218506,0.024099732,12.87620241,77.63956277,7.33
152282048405,-0.121557616,-1.3305877,9.117358,-0.010713195,0.046217345,0.05634155,12.87620241,77.63956277,7.33
152282048427,-0.50105894,-1.2425339,9.7304,-0.10075073,0.13356629,0.058055114,12.87620241,77.63956277,7.33
152282048447,-0.24239501,-0.7277161,10.150935,0.046821594,0.1536026,-0.0042404174,12.87620241,77.63956277,7.33
152282048469,0.015910339,-1.0818527,10.451594,0.04999695,0.098991394,-0.1458313,12.8761361,77.639588,6.67
152282048490,-0.08661804,-1.1082947,9.128363,-0.022077942,-0.043078613,-0.16281433,12.8761361,77.639588,6.67
152282048511,-0.38357085,-0.9764511,9.336301,0.008700562,-0.08253632,-0.08022614,12.8761361,77.639588,6.67
152282048533,-0.8014771,-0.9033524,10.449923,0.028619384,-0.035990905,-0.029039001,12.8761361,77.639588,6.67
152282048554,-0.65240633,-0.6682556,10.575302,0.054148864,0.02288208,-0.010836792,12.8761361,77.639588,6.67
152282048575,-0.03565521,-1.321495,9.543158,-0.021711731,0.050610352,-0.052374266,12.87607801,77.6396202,6.57
152282048596,-0.14608154,-0.9250061,9.080274,0.026417542,0.05000458,-0.064100645,12.87607801,77.6396202,6.57
152282048617,-0.2756546,-1.2919449,9.7617445,-0.04626007,0.0645401,-0.09281006,12.87607801,77.6396202,6.57
152282048639,-0.122514345,-0.6389435,10.514887,0.050732423,0.0063919066,-0.13276061,12.87607801,77.6396202,6.57
152282048660,-0.7076782,-1.0777862,9.759232,0.021044921,-0.029029846,-0.13153839,12.87607801,77.6396202,6.57
152282048681,-0.20709991,-0.9029907,9.49626,-0.019877624,-0.09524231,-0.100019835,12.87601562,77.63964925,6.82
152282048702,-0.61854553,-1.2402588,9.312012,0.021168519,-0.056515504,-0.051272582,12.87601562,77.63964925,6.82
152282048724,-0.2321045,-1.0855621,10.197479,-0.05518036,0.03387909,0.016284179,12.87601562,77.63964925,6.82
152282048745,-0.36813813,-1.087239,9.613508,0.06478272,0.06796112,-0.044552613,12.87601562,77.63964925,6.82
152282048767,0.26404724,-1.3728211,9.485133,0.02263031,0.052934267,-0.09146576,12.87601562,77.63964925,6.82
152282048787,-0.47940215,-0.66418916,10.585953,0.010050965,-0.014369202,-0.14778289,12.87594995,77.63966944,7.09
152282048809,-0.17455903,-1.3153931,9.017815,-0.051513672,-0.110147096,-0.14314422,12.87594995,77.63966944,7.09
152282048830,-0.53838503,-0.7955521,8.475123,-0.016455078,-0.14521027,-0.051026918,12.87594995,77.63966944,7.09
152282048852,-0.6809967,-0.649234,11.092871,0.08017578,-0.09805298,0.0061431886,12.87594995,77.63966944,7.09
152282048872,-0.46313173,-1.0806595,9.75923,0.016770935,-0.039657593,0.04070892,12.87588,77.63968338,7.18
152282048894,-0.14249572,-1.0116256,9.017697,-0.012426758,-0.002281189,0.02910614,12.87588,77.63968338,7.18
152282048915,-0.10456848,-0.8643478,10.718393,-0.056768797,-3.3111573E-4,0.011404419,12.87588,77.63968338,7.18
152282048936,0.0025115968,-1.4680573,9.294546,-0.027088929,-0.035627745,-3.2958985E-4,12.87588,77.63968338,7.18
152282048957,-0.33176422,-1.9817963,9.67201,0.10681152,-0.057980347,0.0171463,12.87588,77.63968338,7.18
152282048979,-0.7621155,-1.876152,8.768366,-0.08156891,-0.05908203,0.045718383,12.87582664,77.63970336,6.49
152282049000,-0.039244078,-1.2592819,8.548465,-0.03453827,-0.024142455,0.07076416,12.87582664,77.63970336,6.49
152282049021,-0.13447876,-1.7194229,9.60705,0.03350525,-0.0026504516,0.0881073,12.87582664,77.63970336,6.49
152282049042,-0.32602388,-0.8405396,11.132113,-0.025134277,-0.0140014645,0.06966095,12.87582664,77.63970336,6.49
152282049064,-0.119522095,-1.4350342,7.8844543,0.025689697,0.013111877,0.0834671,12.87582664,77.63970336,6.49
152282049085,-0.5532242,-0.93816376,10.078554,-0.009742737,0.04927063,0.09238891,12.8757738,77.63971358,6.21
152282049106,-0.10480805,-1.4478378,10.529718,0.043154906,0.05794678,0.06123047,12.8757738,77.63971358,6.21
152282049127,-0.42425078,-0.27954102,11.005414,-0.0145019535,0.02324829,-0.009127808,12.8757738,77.63971358,6.21
152282049149,0.34061584,-1.198384,7.658931,0.0077316286,0.014578247,0.036190797,12.8757738,77.63971358,6.21
152282049170,0.088415526,-0.9318222,8.252353,0.017378235,0.04890442,0.0335022,12.87572235,77.63973728,5.96
152282049191,-0.2468216,-0.34438628,11.226273,-0.0016769409,0.04853668,0.013108825,12.87572235,77.63973728,5.96
152282049212,-0.07489624,-0.87786865,9.661603,0.025810242,0.06698303,-0.002406311,12.87572235,77.63973728,5.96
152282049234,-0.466362,-0.56679994,10.161705,-0.024517823,0.055744935,-0.032333374,12.87572235,77.63973728,5.96
152282049255,-0.28414917,-0.5705078,9.771434,0.03264923,0.04646454,-0.058358766,12.87572235,77.63973728,5.96
152282049277,-0.33356017,-0.7016357,9.710299,-0.010107422,0.027033996,-0.07350616,12.87567554,77.639756,6.43
152282049297,-0.16271515,-0.3217743,9.74703,-0.002531433,0.0011413575,-0.0765625,12.87567554,77.639756,6.43
152282049319,-0.040560912,-0.69122773,9.9092655,-0.008148193,-0.012168884,-0.07644196,12.87567554,77.639756,6.43
152282049340,-0.24394837,-0.52660215,10.101164,-0.011199951,-0.03819275,-0.07167511,12.87567554,77.639756,6.43
152282049362,-0.47150573,-0.74626005,10.160031,0.014085388,-0.02438507,-0.039665222,12.87567554,77.639756,6.43
152282049382,-0.46791688,-0.63846433,10.093391,-0.012670899,-0.004722595,-0.03722229,12.87562404,77.63977054,6.13
152282049404,-0.38141632,-0.68045807,10.286252,0.002232361,-0.016816711,-0.05408325,12.87562404,77.63977054,6.13
152282049425,-0.2883362,-0.8357544,10.050077,0.02324524,-0.048820496,-0.059825134,12.87562404,77.63977054,6.13
152282049447,-0.18867645,-0.8422104,10.364256,-0.0043655396,-0.068122864,-0.040766906,12.87562404,77.63977054,6.13
152282049467,-0.18855743,-0.59874266,10.094226,-0.013896179,-0.06934662,0.0037002563,12.87556137,77.6397809,6.62
152282049489,-0.02500763,-0.8653046,9.672252,-0.01682434,-0.05798187,0.008950805,12.87556137,77.6397809,6.62
152282049510,-0.13770905,-0.80476534,9.751215,-0.04980774,-0.03562317,0.057077028,12.87556137,77.6397809,6.62
152282049531,-5.996704E-4,-0.96377105,9.446492,0.03704834,-0.009976196,0.050364684,12.87556137,77.6397809,6.62
152282049552,-0.43740997,-0.922612,9.408206,-0.041741945,0.008102417,0.060253907,12.87556137,77.6397809,6.62
152282049574,-0.4342987,-0.64169466,9.51026,0.025083924,0.028868103,0.053656004,12.87550514,77.63979336,6.35
152282049595,0.10695801,-0.8407806,10.013947,-0.02219696,0.061976623,0.04962616,12.87550514,77.63979336,6.35
152282049616,0.27923888,-0.665506,9.46994,-0.018780518,0.05293274,0.011761474,12.87550514,77.63979336,6.35
152282049637,-0.5347992,-0.9599411,9.474846,0.010905457,0.034484863,-0.022685241,12.87550514,77.63979336,6.35
152282049659,0.050247192,-0.6949371,9.814741,-0.013400269,-0.009120178,-0.032575987,12.87550514,77.63979336,6.35
152282049680,-0.10528717,-0.89736634,10.066231,0.04169159,-0.035624694,-0.032089233,12.87544469,77.63981065,6.65
152282049702,-0.49890596,-0.65162504,9.880669,-0.012792969,-0.058592223,-0.010591125,12.87544469,77.63981065,6.65
152282049722,0.0148330685,-0.8950958,9.46611,-0.0020401,-0.053704835,0.023736572,12.87544469,77.63981065,6.65
152282049744,-0.47880554,-0.7277176,10.018733,-0.009741211,-0.03794403,0.031791687,12.87544469,77.63981065,6.65
152282049765,0.12693635,-0.84436643,9.598315,-0.023783874,-0.039656065,0.03630676,12.87544469,77.63981065,6.65
152282049786,-0.4206589,-0.8119446,9.923617,-0.006074524,-0.03794403,0.046694946,12.87538078,77.639827,6.65
152282049807,-0.006465149,-0.83599246,9.825392,-0.0030197143,-0.034646608,0.059156798,12.87538078,77.639827,6.65
152282049829,-0.5921051,-0.6920624,9.856619,-0.016822815,-0.016079713,0.09067688,12.87538078,77.639827,6.65
152282049850,-0.26464844,-0.9508484,9.6080065,0.0018676758,0.025572205,0.106192015,12.87538078,77.639827,6.65
152282049871,-0.24574432,-0.87583315,9.826709,-0.010229493,0.07260437,0.09800415,12.87532785,77.63984138,6.65
152282049892,-0.18281403,-0.9897324,9.688524,0.012617493,0.10363464,0.06538544,12.87532785,77.63984138,6.65
152282049914,-0.06963043,-1.0245453,9.785436,0.0065063476,0.07822113,5.264282E-4,12.87532785,77.63984138,6.65
152282049935,-0.038165282,-1.192044,9.699411,0.006385803,0.015792847,-0.03355713,12.87532785,77.63984138,6.65
152282049956,-0.19633332,-0.8053635,9.535027,-0.01279602,0.0070007322,-0.0039932253,12.87532785,77.63984138,6.65
152282049977,-0.31393892,-0.65772855,10.059172,-0.0013076782,0.028134156,0.0032180785,12.87526869,77.63985616,6.68
152282049999,-0.22193451,-0.99511415,9.853388,-0.00887909,0.035588074,-0.00765686,12.87526869,77.63985616,6.68
152282050020,-0.2830719,-0.80955046,9.967885,0.014691162,0.028619384,-0.022317505,12.87526869,77.63985616,6.68
152282050041,-0.238089,-1.0139008,10.142801,0.022145081,0.02789154,-0.026838684,12.87526869,77.63985616,6.68
152282050062,-0.18185577,-0.96927184,9.534785,0.0030883788,0.023980713,-0.03930054,12.87526869,77.63985616,6.68
152282050084,-0.37806854,-0.91232145,9.880545,0.007484436,0.0361969,-0.043699645,12.87520567,77.63988229,7.25
152282050105,0.053596497,-1.4692504,9.649042,-0.008271789,0.012617493,-0.079982,12.87520567,77.63988229,7.25
152282050126,-0.6138794,-0.93218535,11.084139,-9.1552734E-5,-0.045153808,-0.09720917,12.87520567,77.63988229,7.25
152282050147,-0.3548584,-1.7147553,8.823878,-0.0018035888,-0.08106995,-0.08230591,12.87520567,77.63988229,7.25
152282050169,-0.48251495,-1.2372696,9.2439375,0.012493896,-0.12688446,-0.05383606,12.87514616,77.63990182,7.04
152282050190,-0.4575073,-1.2473176,9.259253,-0.030259704,-0.115400694,0.012005615,12.87514616,77.63990182,7.04
152282050211,-0.39481658,-1.0343567,9.483579,0.0065063476,-0.10636139,0.056344606,12.87514616,77.63990182,7.04
152282050232,-0.503569,-1.83703,9.661366,-0.015483093,-0.060670473,0.1060669,12.87514616,77.63990182,7.04
152282050253,-0.23378143,-1.9845444,8.456218,-0.0010665894,0.028135682,0.14345245,12.87514616,77.63990182,7.04
152282050275,-0.31657106,-2.0486755,9.820845,-0.00925293,0.10485687,0.1157196,12.87509051,77.63993156,6.8
152282050296,0.47748566,-1.7114074,9.7922535,-0.009007263,0.11890564,0.04486542,12.87509051,77.63993156,6.8
152282050317,0.3574875,-1.7702713,10.084297,-3.3416747E-4,0.040356446,-0.053718567,12.87509051,77.63993156,6.8
152282050339,-0.7228729,-1.9923233,9.658493,0.034848023,-0.030982971,-0.044917297,12.87509051,77.63993156,6.8
152282050360,-0.17072907,-2.0359955,9.56661,-0.049441528,0.04181671,0.07760163,12.87509051,77.63993156,6.8
152282050381,-0.14273529,-1.7533982,9.76031,0.0052886964,0.08726349,0.00821991,12.87504442,77.63994771,5.94
152282050402,0.15864411,-1.5215347,9.752052,0.020555114,0.059898376,-0.052613832,12.87504442,77.63994771,5.94
