timestamp,accx,accy,accz,gyrx,gyry,gyrz,latitude,longitude,speed
152281978144,0.29395753,-1.5604217,9.795842,-0.0019363404,-0.053375244,-0.0037597655,12.88463235,77.64220164,0.0
152281978165,-0.45319977,-0.92990875,9.846332,-0.0051177978,-0.016964722,-0.0018066406,12.88463235,77.64220164,0.0
152281978186,-0.43860626,-0.93505555,9.791654,0.0075942995,-0.023069764,-0.0019302368,12.88463235,77.64220164,0.0
152281978207,-0.4058258,-0.88253176,9.715681,0.0060043335,-0.032232665,-2.243042E-4,12.88463245,77.64220215,0.0
152281978228,-0.27709198,-1.0015762,9.702403,-2.3040772E-4,-0.009274292,0.003440857,12.88463245,77.64220215,0.0
152281978250,-0.5510696,-1.1060196,9.893712,-0.0053604124,0.037512206,8.773804E-4,12.88463245,77.64220215,0.0
152281978271,0.16103515,-0.86685944,9.992053,0.013088989,-0.0029205321,-0.057763673,12.88463245,77.64220215,0.0
152281978292,-0.48586273,-0.7928009,9.541005,0.006245422,-0.022581482,-0.14767456,12.88463245,77.64220215,0.0
152281978313,-0.6744186,-1.0258636,9.838556,-0.003401184,-0.023197938,-0.08952484,12.88463183,77.64220302,0.0
152281978334,-0.47294313,-1.0397384,9.691515,1.3885499E-4,-0.008050537,-0.0018096924,12.88463183,77.64220302,0.0
152281978356,-0.22863312,-1.1118851,9.961067,3.829956E-4,-0.030766297,-8.2855223E-4,12.88463183,77.64220302,0.0
152281978377,-0.2316269,-0.5678757,9.3266115,-4.7454835E-4,-0.033821106,-0.0025390624,12.88463183,77.64220302,0.0
152281978398,-0.025364686,-0.14183502,10.257418,0.0062423707,-0.014642334,-0.0041275024,12.88463183,77.64220302,0.0
152281978419,0.077287294,-0.6416977,9.8862915,0.0072219847,0.00843811,-0.0077957152,12.88463114,77.64220336,0.0
152281978440,-0.046063233,-0.5748154,9.693189,0.0019699098,0.053515624,-0.009262085,12.88463114,77.64220336,0.0
152281978462,-0.5251053,0.162294,9.923259,0.025793457,0.05510254,-0.035891723,12.88463114,77.64220336,0.0
152281978483,0.05000763,0.26733857,8.893629,0.009794617,0.0325058,-0.09636841,12.88463114,77.64220336,0.0
152281978505,-0.3719635,-0.011784363,8.913847,0.014680481,0.017233277,-0.15439911,12.88463114,77.64220336,0.0
152281978525,-0.32865447,-0.17042999,9.075963,0.02237854,0.007580566,-0.19373627,12.88463025,77.64220223,0.36
152281978547,-0.1379486,0.3691574,8.817535,0.0061309813,-0.04640808,-0.24273224,12.88463025,77.64220223,0.36
152281978568,-0.5247482,-0.10019684,8.847206,0.008329773,-0.09625244,-0.18372345,12.88463025,77.64220223,0.36
152281978589,-1.2032318,0.09266357,9.348028,-0.0010803223,-0.04286499,0.07038574,12.88463025,77.64220223,0.36
152281978610,-0.23401947,0.086203,10.304675,-8.3770754E-4,0.092732236,0.2985962,12.88462569,77.64219708,1.3
152281978632,0.18580016,1.2229125,10.494188,0.0045394897,0.15833893,0.18020935,12.88462569,77.64219708,1.3
152281978653,-0.08662109,0.44943237,9.9485035,-0.013291931,0.13634796,-0.07474823,12.88462569,77.64219708,1.3
152281978675,-0.2511261,0.34199524,8.978932,0.021029662,-0.0062179565,-0.31835786,12.88462569,77.64219708,1.3
152281978695,-1.1237915,0.79926145,10.381126,0.01443634,-0.08354797,-0.22477265,12.88462569,77.64219708,1.3
152281978717,-0.34935302,-0.36340943,9.352931,0.0067352294,-0.06937256,-0.08072968,12.88461523,77.64217993,2.75
152281978738,-0.926384,-0.9113663,10.293547,-0.03418274,0.021751404,0.06524658,12.88461523,77.64217993,2.75
152281978759,0.22743683,-0.83599246,9.907468,-0.01928711,0.078193665,-0.030279541,12.88461523,77.64217993,2.75
152281978780,-0.05192871,-0.98374784,9.80422,0.04412079,0.060847472,-0.12861785,12.88461523,77.64217993,2.75
152281978802,0.24944916,-1.386702,9.927809,0.024572754,0.0039154054,-0.1930069,12.88461523,77.64217993,2.75
152281978823,-0.021417236,-1.1110474,9.693789,-0.0079223635,-0.13412324,-0.28964692,12.8845999,77.64214997,3.74
152281978844,-0.6776535,-1.3591827,9.806727,-0.016349792,-0.2385849,-0.15831146,12.8845999,77.64214997,3.74
152281978865,-1.3211975,-1.3861008,9.637436,0.0115005495,-0.14243165,0.17496033,12.8845999,77.64214997,3.74
152281978887,-0.9047287,-1.2609574,10.379213,0.058779906,0.038859557,0.35687256,12.8845999,77.64214997,3.74
152281978908,-0.19991913,-1.5442673,8.620131,0.0761322,0.16896668,0.30971527,12.8845999,77.64214997,3.74
152281978930,0.6831482,-1.7529236,11.227228,-0.010116577,0.11533661,-0.038098145,12.88458689,77.64211709,3.46
152281978950,-0.5618378,0.0019744872,8.484576,-0.027955627,-0.0034057617,-0.1574585,12.88458689,77.64211709,3.46
152281978972,-0.03744812,-0.42478484,11.064997,-4.6844484E-4,0.011369323,-0.08121948,12.88458689,77.64211709,3.46
152281978993,-0.48059997,-0.8283356,9.250757,-0.07779999,-0.009884643,-0.078656,12.88458689,77.64211709,3.46
152281979014,-0.2977875,-0.045643616,10.244497,0.06293335,0.0035522461,-0.033692934,12.88457462,77.64208731,3.2
152281979035,-0.03565521,-0.49035034,9.080867,-0.11469269,0.015283203,-0.032110594,12.88457462,77.64208731,3.2
152281979057,-0.15158692,0.0607193,11.628508,0.050962828,-0.017700195,-0.121046446,12.88457462,77.64208731,3.2
152281979078,-0.40618438,-1.4227142,8.475363,0.13342743,-0.0754837,-0.048233032,12.88457462,77.64208731,3.2
152281979100,-0.583374,-0.08021851,11.543558,-0.04358826,-0.080004886,-0.0020507812,12.88457462,77.64208731,3.2
152281979120,-0.07764892,0.0029296875,8.160349,-0.017808532,-0.053372193,0.058772277,12.88456133,77.64205668,3.4
152281979142,-0.6733429,-1.3796418,10.011438,0.010034179,-0.018675232,0.11998291,12.88456133,77.64205668,3.4
152281979163,-0.35138854,-1.0203583,9.934865,-0.016593933,0.080882266,0.17275696,12.88456133,77.64205668,3.4
152281979184,0.41611022,-0.95719147,10.346909,0.0072250366,0.07526092,0.037643433,12.88456133,77.64205668,3.4
152281979206,-0.073222354,-1.0645065,9.325773,-0.013417053,-0.0069503784,-0.0722992,12.88456133,77.64205668,3.4
152281979227,-0.22863618,-1.1398789,9.972792,7.492065E-4,-0.060331725,-0.058496095,12.8845462,77.64202245,4.01
152281979248,-0.583371,-0.9768097,9.339292,-0.018920898,-0.06485443,0.045948792,12.8845462,77.64202245,4.01
152281979269,-0.21810913,-1.1471786,9.995165,0.009423828,-0.05483246,0.09102783,12.8845462,77.64202245,4.01
152281979290,-0.4467438,-1.0439255,9.974945,-0.0075561525,-0.06521912,0.091149904,12.8845462,77.64202245,4.01
152281979312,-0.66915435,-1.3372895,9.598315,0.00697937,-0.02747345,0.19706878,12.88453017,77.64198678,3.73
152281979333,-0.38297272,-0.9025116,9.85626,0.02261505,0.031892397,0.21442261,12.88453017,77.64198678,3.73
152281979354,-0.40953368,-1.2239883,9.649404,-0.019158935,0.10738983,0.2263916,12.88453017,77.64198678,3.73
152281979375,-0.5150589,-1.0111465,9.841066,-0.008413697,0.1952301,0.17043762,12.88453017,77.64198678,3.73
152281979397,0.0564682,-1.0948944,9.276001,0.0014877319,0.24080506,0.009669495,12.88453017,77.64198678,3.73
152281979418,0.42006224,-0.780838,10.300967,0.03630371,0.15772858,-0.26411286,12.88451162,77.64195431,3.75
152281979440,0.027398681,-0.5331818,10.321066,0.07905884,-0.03224182,-0.40302125,12.88451162,77.64195431,3.75
152281979460,-0.6010803,-0.81481326,8.800069,0.033003233,-0.16051635,-0.3598938,12.88451162,77.64195431,3.75
152281979482,-0.81320345,0.120420836,11.266352,0.023474121,-0.13583526,-0.08610992,12.88451162,77.64195431,3.75
152281979503,-0.7042099,-1.1890503,9.750501,0.010403442,-0.061555482,0.03019104,12.88451162,77.64195431,3.75
152281979525,-0.8638107,0.18729858,9.18663,2.6550292E-4,-0.027233887,0.04081421,12.88449442,77.64192284,3.7
152281979545,-0.15565185,-0.6229126,9.665672,-2.243042E-4,-0.053004455,-0.019522095,12.88449442,77.64192284,3.7
152281979567,-0.57882386,-0.31005248,9.500092,-0.003404236,-0.023564149,0.0753891,12.88449442,77.64192284,3.7
152281979588,-0.20686035,-0.43722838,9.814504,-0.01048584,0.053027343,0.05987396,12.88449442,77.64192284,3.7
152281979609,-0.22696075,-0.2925827,9.4473295,-0.018424988,0.10995941,0.036302187,12.88447848,77.64188434,4.61
152281979630,-0.02357025,0.050308228,10.664915,-0.015859986,0.06842041,-0.09282379,12.88447848,77.64188434,4.61
152281979652,0.010887146,-0.101034544,9.740565,0.0855362,-0.054104615,-0.14914551,12.88447848,77.64188434,4.61
152281979673,-0.2764923,-0.30598298,10.22954,-0.0675293,-0.16698761,-0.13020782,12.88447848,77.64188434,4.61
152281979695,-0.8013565,0.102955624,9.433568,0.053648375,-0.1347351,0.035812378,12.88447848,77.64188434,4.61
152281979715,-0.109233096,-0.9470169,9.976858,-0.06949005,-0.050559998,0.13085175,12.88445476,77.64182781,5.26
152281979737,-0.80410767,-0.39260405,9.143559,0.047052003,0.10506745,0.18888398,12.88445476,77.64182781,5.26
152281979758,0.20374756,-0.47970277,10.049123,0.0025863647,0.16993865,0.081011966,12.88445476,77.64182781,5.26
152281979779,0.1574463,-0.36879578,9.4865675,-0.012686158,0.10287018,-0.07584381,12.88445476,77.64182781,5.26
152281979800,-0.17850952,-0.5275574,9.765692,0.045707703,-0.047016907,-0.15061645,12.88445476,77.64182781,5.26
152281979822,-0.45786744,-0.40049744,10.062162,-0.025756836,-0.12422638,-0.048355103,12.88443286,77.6417757,6.04
152281979844,-0.67046964,-0.312323,9.428065,0.0417984,-0.073164366,0.054615784,12.88443286,77.6417757,6.04
152281979864,-0.76630247,-0.48078004,9.433212,-0.0051116943,-0.022463989,0.059381105,12.88443286,77.6417757,6.04
152281979885,-0.38500673,-0.59132844,9.689603,-0.014274597,-0.0024307251,0.049978636,12.88443286,77.6417757,6.04
152281979907,-0.5769089,-0.81374055,9.339292,-0.01732483,-0.014160156,0.03177948,12.88443286,77.6417757,6.04
152281979928,-0.6180649,-0.10917206,9.394925,-0.023190308,-0.0021881103,0.05315399,12.88441068,77.64171836,6.32
152281979949,-0.116053775,-0.26996917,10.565854,0.026405334,-0.0035339356,0.046066284,12.88441068,77.64171836,6.32
152281979970,-0.55405885,-0.56273043,9.446251,-0.027218629,0.021630859,0.06414948,12.88441068,77.64171836,6.32
152281979991,-0.027999878,-0.6086731,10.13323,-0.0070648193,0.051438905,0.05266571,12.88441068,77.64171836,6.32
152281980013,-0.13507691,-1.1803162,9.3849945,-0.04615631,0.043981932,0.017613221,12.88438102,77.64165921,7.1
152281980034,0.02572174,-0.1072586,10.0659895,0.01932373,0.030552674,0.0025848388,12.88438102,77.64165921,7.1
152281980055,-0.21882781,-1.7033905,9.56362,-0.0040130615,-0.007926941,-0.024288941,12.88438102,77.64165921,7.1
152281980077,-0.8128433,-1.045961,9.009082,0.02664795,-0.05947571,-0.014637756,12.88438102,77.64165921,7.1
152281980098,-0.5184067,-1.2431304,9.425314,-0.019769287,-0.008660888,0.062927246,12.88438102,77.64165921,7.1
152281980119,-0.558725,-0.86446685,9.628586,0.02261505,0.042152405,0.06769409,12.8843527,77.64160553,6.95
152281980140,-0.9773499,-0.99356234,10.1715145,-0.0031585693,0.08539887,0.0483902,12.8843527,77.64160553,6.95
152281980161,-0.5891159,-1.1232483,9.667707,-0.024287414,0.124005124,0.015415954,12.8843527,77.64160553,6.95
152281980183,0.10169373,-1.5625718,9.826471,0.046440125,0.076849364,-0.085494995,12.8843527,77.64160553,6.95
152281980216,0.11353912,-0.62853396,9.860327,0.01980896,-0.032240294,-0.14706573,12.8843527,77.64160553,6.95
152281980237,-0.7637909,-1.0935806,9.816302,-0.03577576,-0.09673615,-0.08952789,12.88432436,77.64155861,6.75
152281980258,-0.34707946,0.008673096,9.779454,0.03190155,-0.1071228,-0.038700867,12.88432436,77.64155861,6.75
152281980279,-0.6147171,-0.6014954,10.531634,-0.017448425,-0.053855896,0.057185363,12.88432436,77.64155861,6.75
152281980300,-0.7826935,-0.5862991,9.158514,0.016758729,0.03128357,0.064888,12.88432436,77.64155861,6.75
152281980322,-0.25770873,-0.9958313,10.014668,0.0025802613,0.03188934,0.008573914,12.88429979,77.64150396,6.35
152281980343,-0.09104767,-0.7969879,9.693907,0.0060043335,0.0013519287,-0.010365295,12.88429979,77.64150396,6.35
152281980364,-0.058143616,-1.0222747,9.713409,0.02395935,0.011856079,0.003930664,12.88429979,77.64150396,6.35
152281980385,-0.30197603,-0.9494095,9.774307,-0.034791566,0.030917358,0.008332824,12.88429979,77.64150396,6.35
152281980407,-0.69750977,-0.9451065,9.318235,0.022618104,0.04081116,-0.011460876,12.88429979,77.64150396,6.35
152281980428,-0.3754364,-0.5147568,9.662082,-0.007434082,0.022973632,-0.04041443,12.88426839,77.64144882,6.61
152281980450,0.21403655,-0.6041275,10.037038,0.0011154175,-0.02576294,-0.06790314,12.88426839,77.64144882,6.61
152281980470,-0.6352951,-0.48771667,9.727046,-0.008903503,-0.089653015,-0.06753387,12.88426839,77.64144882,6.61
152281980492,-0.60789645,-0.58486634,10.043619,0.0014862061,-0.10223694,0.0034439086,12.88426839,77.64144882,6.61
152281980513,-0.48167723,-0.908374,9.3437195,-0.022576904,-0.037730407,0.07746582,12.88426839,77.64144882,6.61
152281980535,-0.5995224,-0.7139557,10.064318,0.02017212,0.007949829,0.070013426,12.8842433,77.64139501,6.82
152281980555,-0.5185257,-0.3982254,9.808405,-0.016476441,0.05657196,0.057307433,12.8842433,77.64139501,6.82
152281980577,-0.25974274,-0.7979477,9.584918,-0.028079223,0.050091553,0.014926148,12.8842433,77.64139501,6.82
152281980598,-0.25950164,-0.7652832,9.689484,-0.029905701,0.030917358,0.0025878907,12.8842433,77.64139501,6.82
152281980619,-0.29420012,-1.0621125,10.501126,0.06281586,0.029570008,-0.0011978149,12.8842104,77.6413354,7.12
152281980640,-0.2837906,-1.3584656,10.226908,0.019447327,0.037023924,-0.015249634,12.8842104,77.6413354,7.12
152281980662,-0.20016022,-1.5266784,8.878794,-0.16356201,0.028596496,-0.011708069,12.8842104,77.6413354,7.12
152281980683,-0.29587403,-1.1061401,9.82659,0.2193161,0.027986145,-0.04811249,12.8842104,77.6413354,7.12
152281980704,-0.33667296,-0.8564514,9.6479645,-0.11053467,0.010516358,-0.03100891,12.8842104,77.6413354,7.12
152281980725,-0.37124938,-0.26853484,9.579889,0.05792389,0.0029388429,-0.029664611,12.88417792,77.64127743,7.28
152281980747,-0.60383,-0.96305084,10.205133,-0.045178223,0.019918824,-0.027218629,12.88417792,77.64127743,7.28
152281980768,-0.5997604,-0.7668396,9.134585,-0.018424988,0.042520143,-0.009384155,12.88417792,77.64127743,7.28
152281980790,-0.73710936,-0.71706694,10.661326,0.017970275,0.066949464,-0.036627196,12.88417792,77.64127743,7.28
152281980810,-0.06317444,-1.7932419,8.756401,-0.027957153,0.07758026,-0.051408388,12.88417792,77.64127743,7.28
152281980832,-0.28235474,-0.9668808,10.8488035,0.062077332,0.033969115,-0.11884765,12.88414937,77.64121633,7.57
152281980853,0.057302855,-2.083609,9.636121,-0.034179688,-0.041520692,-0.13448486,12.88414937,77.64121633,7.57
152281980874,-0.27601472,-1.5734603,10.134783,0.029090881,-0.10663605,-0.1197052,12.88414937,77.64121633,7.57
152281980895,-1.3016952,-1.9284347,10.054504,0.060614012,-0.12960663,-0.05922699,12.88414937,77.64121633,7.57
152281980916,-0.2749359,-1.1618942,9.405813,-0.13753358,-0.045062255,0.04020538,12.88414937,77.64121633,7.57
152281980938,-0.7660614,-1.5088516,10.259094,0.14100647,0.047525026,0.03117218,12.88412518,77.64115243,7.55
152281980959,-0.36610413,-1.306781,10.1766615,-0.12617493,0.052168272,-0.021968078,12.88412518,77.64115243,7.55
152281980980,-0.41156465,-1.0836502,10.275246,0.09055023,0.03226013,-0.04701233,12.88412518,77.64115243,7.55
152281981002,-0.41754913,-1.7569901,11.854985,-0.012315368,0.015036011,-0.06643677,12.88412518,77.64115243,7.55
152281981023,-0.45427856,-1.2383438,8.631136,-0.012440491,0.0014724731,-0.04835205,12.88410382,77.64109367,7.27
152281981044,-0.6032318,-1.5492951,10.649004,0.040945433,0.023338318,-0.04591217,12.88410382,77.64109367,7.27
152281981065,-0.33750916,-1.1006378,9.401507,-0.05898285,0.031031799,-0.052749634,12.88410382,77.64109367,7.27
152281981086,-0.23760834,-1.2577286,9.401503,-0.006703186,0.044229127,-0.05409851,12.88410382,77.64109367,7.27
152281981108,-0.71497804,-0.84735715,10.633807,0.06488953,0.004284668,-0.111763,12.88410382,77.64109367,7.27
152281981129,-0.029910278,-1.4206756,10.047447,-0.0033996582,-0.1059021,-0.15354308,12.88408546,77.64102228,7.09
152281981150,-0.21822663,-1.1446655,9.844417,-0.008656311,-0.12947997,-0.037236024,12.88408546,77.64102228,7.09
152281981171,-0.42496642,-1.6597198,9.476163,0.0013610839,-0.06803284,0.018345643,12.88408546,77.64102228,7.09
152281981193,-0.6916458,-1.3814377,9.334984,-0.033453368,0.0024490356,0.057185363,12.88408546,77.64102228,7.09
152281981214,-0.28115997,-1.9213775,9.661249,0.020544434,0.0521698,0.0482666,12.88408546,77.64102228,7.09
152281981235,-0.55381775,-1.6427323,9.821207,-0.046517946,0.084423825,0.017007446,12.88407345,77.64095691,7.06
152281981256,0.007777405,-1.4931793,9.885814,0.021760559,0.064143375,-0.038337708,12.88407345,77.64095691,7.06
152281981278,-0.17539673,-1.9973481,9.712931,-0.024417114,0.015768433,-0.08757172,12.88407345,77.64095691,7.06
152281981299,-0.33045045,-2.1190248,9.736261,0.030314635,-0.018066406,-0.07071228,12.88407345,77.64095691,7.06
152281981320,-0.610051,-2.169391,9.827309,0.013699341,-0.0313797,-0.05397644,12.88406401,77.64089627,6.62
152281981341,-0.4681549,-2.55679,9.7325535,-0.003034973,-0.025761414,-0.03577423,12.88406401,77.64089627,6.62
152281981363,-0.38034058,-2.8128235,9.315363,0.0138168335,-0.030651856,-0.04249115,12.88406401,77.64089627,6.62
152281981384,-0.45954436,-2.9233704,9.977575,-0.018067932,-0.04273987,-0.037113953,12.88406401,77.64089627,6.62
152281981405,-0.6250061,-2.970389,9.301247,0.005760193,-0.0162323,0.023840332,12.88406401,77.64089627,6.62
152281981426,-0.36778107,-2.8649857,10.143999,0.0023391724,0.025660705,0.03104248,12.88406029,77.64085343,5.51
152281981448,-0.18951264,-3.0401397,10.100212,0.013575745,0.050337218,0.013462829,12.88406029,77.64085343,5.51
152281981470,-0.4158737,-2.4445662,9.513487,-0.028933715,0.06182251,-0.027217101,12.88406029,77.64085343,5.51
152281981490,-0.2883362,-1.1807969,12.754209,0.4015976,0.066223145,-0.11078186,12.88406029,77.64085343,5.51
152281981511,-0.23162536,-1.7660828,6.276479,0.17838593,-0.017094422,-0.16014099,12.88406029,77.64085343,5.51
152281981533,0.04821167,-3.435672,10.991774,-0.7812576,0.028964233,-0.24407959,12.88405782,77.64081351,3.46
152281981555,-0.61292267,-0.8650589,10.827748,-0.33020172,-0.10590057,-0.34303284,12.88405782,77.64081351,3.46
152281981575,-1.0198243,-0.9559906,9.26882,0.35980684,-0.19142303,-0.11591339,12.88405782,77.64081351,3.46
152281981597,-0.83102876,-1.4809784,10.939967,0.37227172,-0.11836243,0.089559935,12.88405782,77.64081351,3.46
152281981618,-1.0304703,-0.8480774,10.604736,-0.14841004,-0.0035339356,0.3166809,12.88405782,77.64081351,3.46
152281981639,-0.4737808,-0.49477386,9.287847,0.1171814,0.14770813,0.37996674,12.88405927,77.64078925,2.18
152281981660,0.542572,-0.86638033,10.692792,-0.04750061,0.13696137,0.076983646,12.88405927,77.64078925,2.18
152281981681,-0.19980316,0.038223267,8.766688,-0.013049317,0.06560516,-0.090501405,12.88405927,77.64078925,2.18
152281981703,-0.45164642,-0.65461576,11.000508,0.038743593,0.05241699,-0.10895233,12.88405927,77.64078925,2.18
152281981724,-0.068553165,-0.24855347,9.6671095,0.018830871,-0.013304139,-0.18298797,12.88405201,77.64075208,3.0
152281981745,-0.25268555,-1.545227,9.873012,0.032151796,-0.10834809,-0.2165863,12.88405201,77.64075208,3.0
152281981766,-0.9291336,-1.1764923,9.382243,-0.07156525,-0.11408844,-0.038827516,12.88405201,77.64075208,3.0
152281981788,-0.692601,-1.0680969,9.933189,-0.0078033446,-0.08525238,0.07355652,12.88405201,77.64075208,3.0
152281981810,-0.80757904,-0.90251315,10.0908785,-0.015255737,-0.0013320923,0.20317535,12.88405201,77.64075208,3.0
152281981830,-0.06329346,-0.88169557,10.011795,0.038256835,0.054129027,0.1539444,12.88405138,77.64071345,3.24
152281981851,-0.0335022,-1.0713257,9.670576,0.005517578,0.04007263,0.03947296,12.88405138,77.64071345,3.24
152281981873,-0.28558198,-1.4922225,9.385473,0.0056396485,-0.009272766,-0.028561402,12.88405138,77.64071345,3.24
152281981894,-0.44075927,-1.4475968,10.184317,-0.011956787,-0.03137512,-0.0062042237,12.88405138,77.64071345,3.24
152281981915,-0.46768188,-1.6392639,10.295225,-0.0143966675,0.006362915,0.09750061,12.88405138,77.64071345,3.24
152281981936,-0.2374878,-1.5811173,9.789862,0.0023391724,0.057543945,0.1358612,12.88404688,77.64068893,3.28
152281981958,-0.035414122,-1.5893738,9.948863,0.007955933,0.11606445,0.09164123,12.88404688,77.64068893,3.28
152281981980,0.24490356,-1.4168488,10.458656,0.02127533,0.104824826,-0.056906126,12.88404688,77.64068893,3.28
152281982000,0.024168396,-1.4212768,9.84621,-0.005238342,0.033970643,-0.2244049,12.88404688,77.64068893,3.28
152281982021,-0.36849672,-1.2954147,9.611354,0.017732238,-0.017204285,-0.24737243,12.8840428,77.64065338,3.01
152281982043,-0.5379074,-1.2948135,9.885692,0.005145264,-0.042129517,-0.2164627,12.8840428,77.64065338,3.01
152281982064,-0.22253418,-1.3333404,9.6785965,0.0108886715,-0.05801239,-0.15965423,12.8840428,77.64065338,3.01
152281982085,-0.2828354,-1.1264801,9.8786335,0.0014846802,-0.07487182,-0.10162048,12.8840428,77.64065338,3.01
152281982106,-0.6179474,-1.3603805,9.584912,-0.010734558,-0.10932312,-0.07657318,12.8840428,77.64065338,3.01
152281982128,-0.8256439,-1.4443696,9.333311,-0.014028931,-0.07926941,0.08210907,12.88404593,77.6406314,2.71
152281982150,-0.63756865,-1.3599014,9.560267,-0.025021363,0.0073394775,0.2201645,12.88404593,77.6406314,2.71
152281982170,-0.24825744,-1.3460236,10.250597,0.012477112,0.041297913,0.17006835,12.88404593,77.6406314,2.71
152281982191,0.07525329,-1.6080353,9.437157,0.05731201,0.029447937,0.048757933,12.88404593,77.6406314,2.71
152281982213,-0.16355133,-1.4381454,9.29957,-0.03711853,0.0018447876,-0.0143966675,12.88404593,77.6406314,2.71
152281982234,-0.3750763,-1.9907669,8.957036,-0.2847519,-0.028936768,-0.0066955565,12.88404767,77.64060778,2.5
152281982255,-0.38141936,-1.5199814,11.625036,0.26061708,-0.028814698,0.030070495,12.88404767,77.64060778,2.5
152281982276,-0.2697937,-1.4419739,7.8429413,0.18314973,-0.056181334,0.049369812,12.88404767,77.64060778,2.5
152281982298,-0.52726287,-3.4549346,10.181206,0.123658754,0.0014785767,0.22687683,12.88404767,77.64060778,2.5
152281982319,-0.43944398,-0.37657014,10.596957,-0.34608,-0.02026825,0.16494294,12.88404377,77.64059424,2.09
152281982340,-0.5188843,-1.563411,8.569399,0.17362061,-0.026618958,0.19230804,12.88404377,77.64059424,2.09
152281982361,-0.74213564,-1.4123032,10.688725,0.019328307,0.037510682,0.2983505,12.88404377,77.64059424,2.09
152281982383,-0.16295166,-1.571785,9.273489,-0.016352843,0.084790036,0.2882065,12.88404377,77.64059424,2.09
152281982404,0.5240265,-1.5490539,9.934026,-0.021240234,-0.020513916,0.0071044923,12.88404377,77.64059424,2.09
152281982425,-0.4801224,-1.4501114,10.071497,-0.079257205,-0.12911682,-0.13326415,12.88403873,77.64058646,1.66
152281982447,-1.1925873,-1.2988846,9.779572,-0.05616913,-0.13913575,0.12059784,12.88403873,77.64058646,1.66
152281982468,-1.1214005,-1.6079162,9.770477,0.024205018,-0.014280701,0.4473999,12.88403873,77.64058646,1.66
152281982489,-1.0792831,-1.0433304,9.974829,0.040818788,0.07917023,0.64544374,12.88403873,77.64058646,1.66
152281982510,1.1258194,0.24771729,8.014145,0.22908935,0.046427917,0.37483367,12.88403873,77.64058646,1.66
152281982531,-0.16427001,-2.7531235,13.078318,-0.16221619,-0.05862732,0.028234864,12.88403182,77.64057147,1.55
152281982553,-1.1927032,-0.5979065,7.475522,0.123291016,-0.02992096,0.1598114,12.88403182,77.64057147,1.55
152281982574,0.057904053,-2.2852066,11.960869,-0.03173981,-0.05227051,0.19438477,12.88403182,77.64057147,1.55
152281982595,-0.9894333,-1.0771897,7.999789,0.07149048,-0.05153961,0.3053131,12.88403182,77.64057147,1.55
152281982616,-0.45212555,-1.7583053,11.512217,-0.15598145,-0.026985168,0.41098937,12.88403182,77.64057147,1.55
152281982638,-0.38990936,-0.3305069,7.7200685,0.02909546,-0.005610657,0.48197633,12.88402083,77.6405587,1.76
152281982659,0.024046326,-0.86003876,9.587906,-0.053981017,-0.05593872,0.37141418,12.88402083,77.6405587,1.76
152281982680,-0.25603333,-0.7704269,10.676882,0.13587037,-0.04482422,0.4371399,12.88402083,77.6405587,1.76
152281982701,-0.32099915,-0.49537507,8.978811,0.029216003,-0.04445801,0.3505203,12.88402083,77.6405587,1.76
152281982723,-0.6435501,1.0764679,9.248607,0.13049622,0.038366698,0.44495696,12.88400635,77.64055244,1.53
152281982744,0.51601106,-3.6553376,8.742763,-0.020259093,0.011491394,0.3070282,12.88400635,77.64055244,1.53
152281982765,-0.098825075,-0.48616028,11.187386,-0.15208283,0.07905121,0.20428619,12.88400635,77.64055244,1.53
152281982786,-1.9229934,0.041934203,8.984912,0.251326,0.11240234,0.29737702,12.88400635,77.64055244,1.53
152281982808,-0.05611267,0.7858612,9.811035,0.04962311,0.16762237,0.35699615,12.88400635,77.64055244,1.53
152281982829,0.7091125,-2.8445268,10.445613,-0.16404724,0.057551574,0.0443634,12.88398988,77.64055119,1.71
152281982850,-0.19800873,0.9471405,6.002739,-0.17796937,-0.05105133,-0.16503143,12.88398988,77.64055119,1.71
152281982872,-0.5797836,0.36436766,13.062523,0.18083343,-0.10260467,-0.14523926,12.88398988,77.64055119,1.71
152281982893,-0.43501893,-0.36963043,7.61897,0.1025177,-0.042497255,0.041918945,12.88398988,77.64055119,1.71
152281982914,-0.37005156,-1.1269592,9.240229,0.2571884,0.05657501,0.114486694,12.88398988,77.64055119,1.71
152281982935,0.33798522,0.5209778,9.479151,-0.30051422,-0.004017639,0.005761719,12.88396986,77.64055142,2.12
152281982956,-0.13591461,1.0971695,10.05319,0.1498001,-0.004142761,-0.02978363,12.88396986,77.64055142,2.12
152281982978,0.41120607,0.53342134,11.8202915,-0.079258725,-0.0391983,-0.033937074,12.88396986,77.64055142,2.12
152281982999,-0.6995422,-0.18191528,8.2184925,0.03740082,-0.058135986,-0.020625304,12.88396986,77.64055142,2.12
152281983020,0.13220367,-0.16121674,10.696861,0.017613221,-0.09295197,0.026896667,12.88394391,77.64055244,2.82
152281983041,-0.54616547,0.6821335,9.939293,-0.009629821,-0.10162506,0.07722016,12.88394391,77.64055244,2.82
152281983063,-0.9914673,0.4051651,9.766052,0.0150436405,-0.048605345,0.17569122,12.88394391,77.64055244,2.82
152281983084,-0.68721926,0.16157684,10.203099,-0.09978028,3.768921E-4,0.23922272,12.88394391,77.64055244,2.82
152281983105,-0.66616213,0.38901368,9.628462,0.041674804,0.06817627,0.23054504,12.88394391,77.64055244,2.82
152281983126,-0.39541474,-0.14111328,10.327051,0.008078003,0.13744965,0.20171204,12.88391099,77.64055497,3.72
152281983148,-0.25172728,-0.19411926,9.241783,0.018832397,0.17385407,0.11460419,12.88391099,77.64055497,3.72
152281983169,0.3241043,-0.9591034,9.98009,-0.01464386,0.13867036,-0.04627838,12.88391099,77.64055497,3.72
152281983190,0.14081573,-1.0536194,9.756363,0.009179687,0.019558717,-0.16124268,12.88391099,77.64055497,3.72
152281983211,-0.5355164,-1.3633683,9.3552065,-0.0013275146,-0.05557251,-0.14438018,12.88391099,77.64055497,3.72
152281983233,-0.57619476,-1.2968506,9.845251,-0.037722778,-0.053367615,-0.034425355,12.88386913,77.64056066,4.61
152281983254,-0.49579468,-1.0343583,9.684816,0.06855164,-0.049215697,-0.027342224,12.88386913,77.64056066,4.61
152281983275,-0.48789674,-1.3657639,10.100449,0.0022216798,-0.03626709,0.0025878907,12.88386913,77.64056066,4.61
152281983296,-0.30221406,-1.115593,9.732432,-0.022573853,-0.03614197,0.0058868406,12.88386913,77.64056066,4.61
152281983318,-0.36933288,-1.576094,10.048525,0.03141632,-0.027716065,0.03837738,12.88386913,77.64056066,4.61
152281983339,-0.76941377,-1.9054642,9.486809,-0.02881012,0.0061157225,0.07160187,12.88382586,77.64056518,4.39
152281983360,-0.19992217,-1.2656235,10.104279,0.023471069,0.033966064,0.06304932,12.88382586,77.64056518,4.39
152281983381,-0.017591858,-1.3035523,11.702204,0.059397887,0.01954956,0.011265564,12.88382586,77.64056518,4.39
152281983403,-0.4699524,-0.803212,6.691275,0.37813872,-0.0069534304,-0.018058777,12.88382586,77.64056518,4.39
152281983424,-0.20386657,-4.16022,9.425194,-0.80728453,-0.020635987,0.06977234,12.88378623,77.6405707,4.17
152281983445,-0.14392853,-0.25501555,10.431496,-0.17260437,-0.022463989,0.010281372,12.88378623,77.6405707,4.17
152281983466,-0.6920044,-0.14207458,7.462125,0.64801943,0.0033035278,0.06524964,12.88378623,77.6405707,4.17
152281983488,-0.33069,-3.5231323,12.221687,-0.195932,0.0496109,0.04546051,12.88378623,77.6405707,4.17
152281983509,-0.1386673,0.30215302,7.759787,0.039356995,0.111299135,0.08980713,12.88378623,77.6405707,4.17
152281983530,0.26033935,-1.0219162,10.712415,0.114126585,-0.049707033,-0.10931702,12.88374802,77.64057754,4.17
152281983552,-1.1205612,-0.20739594,8.859774,-0.0688797,-0.09490814,-0.08574066,12.88374802,77.64057754,4.17
152281983573,-0.47509614,0.033439636,10.227269,0.080647275,-0.034805298,0.055473328,12.88374802,77.64057754,4.17
152281983594,-0.32745972,-0.11072693,9.633369,-0.059718322,-0.024295043,0.053518675,12.88374802,77.64057754,4.17
152281983615,-0.39625397,0.06287384,9.612551,0.028115844,0.017840575,0.10226593,12.88374802,77.64057754,4.17
152281983636,-0.19800416,-0.09577332,10.310539,-0.025143433,0.033970643,0.06402741,12.88371667,77.64058567,3.49
152281983657,-0.8519653,0.111924745,10.157278,0.03263397,0.080395505,0.06659393,12.88371667,77.64058567,3.49
152281983679,-0.06388855,-0.73621213,10.2154255,0.010154724,0.14709473,0.0628067,12.88371667,77.64058567,3.49
152281983700,0.11653137,-0.66299284,9.186749,-0.004499817,0.14526825,-0.10369873,12.88371667,77.64058567,3.49
152281983721,-0.1892746,0.14877625,10.33375,0.030804444,0.06756439,-0.22403717,12.88368672,77.64059425,3.58
152281983743,-0.16438751,-0.93134916,9.50284,0.014923096,-0.038220216,-0.28964692,12.88368672,77.64059425,3.58
152281983764,-0.8739807,0.14709778,10.327167,0.045339964,-0.14035492,-0.25873566,12.88368672,77.64059425,3.58
152281983785,-0.47054902,-0.2578888,8.859293,0.0063690185,-0.17993775,-0.12874603,12.88368672,77.64059425,3.58
152281983806,-0.66245425,-1.2732804,9.450559,0.052304078,-0.15746002,-7.1563723E-4,12.88368672,77.64059425,3.58
152281983828,-1.1429322,-0.996788,9.199549,-0.0108535765,-0.07780609,0.15272827,12.88365521,77.64060119,3.57
152281983849,-0.8112869,0.25417787,9.83317,-0.026242066,0.023956299,0.19682617,12.88365521,77.64060119,3.57
152281983870,-0.110787965,0.21756896,9.618652,0.014070129,0.08956299,0.14404908,12.88365521,77.64060119,3.57
152281983891,0.06939087,0.6046066,10.83983,0.07258453,0.0739212,-0.0054748533,12.88365521,77.64060119,3.57
152281983912,-0.09631348,0.19292298,10.3520565,-0.16917725,-0.038957216,-0.05898285,12.88365521,77.64060119,3.57
152281983934,-0.3432495,0.7760544,9.307945,0.15493163,-0.061561584,-0.0052307127,12.88362163,77.64060642,3.93
152281983955,-0.6742981,0.100917056,10.362343,-0.0042526247,-0.047628783,0.041679382,12.88362163,77.64060642,3.93
152281983976,-0.53671265,0.2084732,8.922104,-0.07302704,0.0147918705,0.10043335,12.88362163,77.64060642,3.93
152281983997,-0.68518674,0.2252243,10.014784,0.045463562,0.05608215,0.08907013,12.88362163,77.64060642,3.93
152281984019,-0.34373015,-0.1331009,9.483937,-0.03540802,0.12412872,0.07098846,12.88358265,77.64061415,4.68
152281984040,-0.13926391,-0.32655793,9.599031,-0.003529358,0.13952637,-0.014393616,12.88358265,77.64061415,4.68
152281984061,0.6202179,0.07196655,10.407209,0.016755676,0.07184143,-0.10272522,12.88358265,77.64061415,4.68
152281984082,0.19477387,0.2694931,10.5966015,0.027502442,-0.05276184,-0.16221619,12.88358265,77.64061415,4.68
152281984104,0.15983734,-0.29892272,10.065634,-0.032476805,-0.1754181,-0.12067871,12.88358265,77.64061415,4.68
152281984125,-1.0485382,-0.141716,9.744276,0.037158202,-0.24004975,-0.02098999,12.88352642,77.64062354,5.43
152281984147,-0.8718262,-0.0067596436,10.1473465,-0.013661194,-0.14182281,0.13781738,12.88352642,77.64062354,5.43
152281984168,-0.84550476,0.16396943,9.410238,-5.92041E-4,0.06560822,0.21930543,12.88352642,77.64062354,5.43
152281984189,-0.4999817,0.23323822,10.219609,0.032637022,0.14135742,0.12144623,12.88352642,77.64062354,5.43
152281984210,-0.18149719,0.2657837,9.707308,-0.022705078,0.1233963,0.032266237,12.88352642,77.64062354,5.43
152281984231,-0.42831725,-0.14578553,10.23277,0.038989257,0.06671295,-0.014515686,12.88344408,77.6406331,7.01
152281984252,-0.47725067,0.103190616,9.891077,-0.023309326,0.023342896,-0.022332763,12.88344408,77.6406331,7.01
152281984274,-0.38524628,-0.2724823,10.003416,0.0070999144,0.008561706,-0.022087097,12.88344408,77.6406331,7.01
152281984295,-0.37615508,-0.24508515,10.137897,-0.006089783,0.012837219,-0.004989624,12.88344408,77.6406331,7.01
152281984316,-0.376033,-0.448114,9.591019,0.030680846,0.038005065,-0.0086456295,12.88344408,77.6406331,7.01
152281984337,-0.39948273,-0.19890289,9.686971,-0.05019226,0.021510314,-0.025263976,12.88337346,77.64065685,7.58
152281984359,-0.42676085,-0.46845704,9.511698,0.049375914,-0.005490112,-0.04065857,12.88337346,77.64065685,7.58
152281984380,-0.39613494,-0.3853073,9.649042,-0.03271637,-0.03247528,-0.021963501,12.88337346,77.64065685,7.58
152281984401,-0.24945374,-0.3303879,9.622722,0.030065918,-0.030895997,-0.018789673,12.88337346,77.64065685,7.58
152281984422,-0.489093,-0.6980454,9.64007,0.017730713,-0.041030884,-0.011457825,12.88331485,77.6406722,7.55
152281984444,-0.3263794,-0.27439728,9.50236,-0.018792724,-0.050927736,0.0011260987,12.88331485,77.6406722,7.55
152281984465,-0.33176574,-0.5215744,9.773348,0.053527832,-0.06131134,0.009674072,12.88331485,77.6406722,7.55
152281984486,-0.4354965,-0.31112975,9.798235,-0.045541383,-0.063999936,0.022012329,12.88331485,77.6406722,7.55
152281984507,-0.581456,-0.43974152,9.592692,0.023104858,-0.08598938,0.0292099,12.88331485,77.6406722,7.55
152281984529,-0.6953537,-0.30921325,10.4238405,0.02689209,-0.068035886,0.08650818,12.88324567,77.64069193,8.06
152281984550,-0.5203186,-0.357547,9.841904,-0.009507751,0.04117737,0.14136048,12.88324567,77.64069193,8.06
152281984571,-0.31477508,-0.15846404,10.075084,0.0020950318,0.11936493,0.09383545,12.88324567,77.64069193,8.06
152281984592,-0.27553558,-0.18957062,10.18025,0.008076477,0.12608337,0.03666382,12.88324567,77.64069193,8.06
152281984614,-0.09427948,-0.16444549,10.012034,-0.04066162,0.03519287,-0.036257934,12.88324567,77.64069193,8.06
152281984635,-0.35904542,-0.6194412,9.895264,0.011256409,-0.07267304,-0.04688873,12.88317543,77.64072711,8.17
152281984656,-0.81296384,-1.150769,10.282425,0.00796051,-0.12276001,0.0023391724,12.88317543,77.64072711,8.17
152281984677,-0.5361145,-0.8515457,9.541844,0.0014831543,-0.124354556,0.05571747,12.88317543,77.64072711,8.17
152281984699,-0.60837555,-1.497847,10.231099,-0.019532776,-0.092955016,0.09591217,12.88317543,77.64072711,8.17
152281984720,-0.27685395,-2.1028748,9.729678,0.0056396485,-0.037365723,0.12486877,12.88317543,77.64072711,8.17
152281984741,-0.1355545,-2.0984435,8.962543,-0.025996398,-0.040174864,0.09347077,12.88309635,77.64074879,7.98
152281984762,-0.06556396,-1.845404,9.85423,0.015771484,-0.08330383,0.0984787,12.88309635,77.64074879,7.98
152281984784,-1.0512893,-1.1798432,10.321783,-4.7302246E-4,-0.044326782,0.17593232,12.88309635,77.64074879,7.98
152281984805,-0.39517364,-0.9214157,9.864397,0.003315735,0.070373535,0.22846833,12.88309635,77.64074879,7.98
152281984826,-0.22157593,-1.7250473,9.805771,0.029826354,0.18766174,0.212706,12.8830292,77.64077471,7.77
152281984847,0.06963043,-1.2605972,9.595685,0.012724305,0.19828339,0.0916336,12.8830292,77.64077471,7.77
152281984869,-0.26058045,-1.238704,10.171516,-0.016473388,0.09859314,-0.017811585,12.8830292,77.64077471,7.77
152281984890,-0.283432,-0.95084685,8.86025,0.02664795,-0.0019485473,-0.043470763,12.8830292,77.64077471,7.77
152281984911,-0.22995453,-1.4880371,10.79365,-0.02136383,-0.022947693,0.00796051,12.8830292,77.64077471,7.77
152281984932,-1.2093322,-0.46761626,9.914403,0.03153534,0.009539795,0.047660828,12.88295937,77.64079773,7.28
152281984954,-0.07298279,-0.91531676,10.645655,-0.0432251,0.03665619,0.035928346,12.88295937,77.64079773,7.28
152281984975,-0.1458435,-1.9414765,9.242144,0.04131012,0.009902954,-0.015002442,12.88295937,77.64079773,7.28
152281984996,-0.9261429,-0.6723221,8.893392,-0.0088973995,-0.020021057,-0.00938263,12.88295937,77.64079773,7.28
152281985018,-0.51266176,-0.13429566,9.722499,-0.0034103394,-0.0021865845,0.025305176,12.88295937,77.64079773,7.28
152281985038,-0.644989,-0.42897338,10.709539,9.918213E-4,-0.0076843263,0.010775757,12.8829063,77.64081598,7.28
152281985060,-0.66006166,-0.5732605,10.025076,-0.0056030275,-0.003779602,0.021766663,12.8829063,77.64081598,7.28
152281985081,-0.86261594,-1.3918457,9.38631,0.013822937,0.02736969,0.042155456,12.8829063,77.64081598,7.28
152281985102,-0.4358551,-1.6898696,8.50324,0.015779113,0.040567018,0.0018539429,12.8829063,77.64081598,7.28
152281985123,-0.075494386,-1.7053055,8.781286,-0.028079223,-0.0049987794,-0.03540344,12.88284997,77.6408284,6.85
152281985145,0.36346895,-0.84364927,9.379494,-0.016229248,-0.054959107,-0.028199768,12.88284997,77.6408284,6.85
152281985166,-0.5443695,-1.1492112,8.734148,0.03263397,-0.07230683,0.0035705566,12.88284997,77.6408284,6.85
152281985187,0.051203918,-1.4088348,9.409999,-0.054707337,-0.040298462,0.044599913,12.88284997,77.6408284,6.85
152281985209,-0.52319336,-1.8011338,8.771353,0.039723206,-0.00683136,0.08113098,12.88284997,77.6408284,6.85
152281985230,-0.023451233,-1.7852249,9.996242,-0.028933715,0.02627411,0.07502289,12.88280667,77.64086478,6.39
152281985251,-0.44638366,-1.2870392,9.793211,0.03715515,0.0568161,0.06683655,12.88280667,77.64086478,6.39
152281985272,-0.95665133,-0.5001602,10.395605,-0.053240966,0.064389035,0.043992616,12.88280667,77.64086478,6.39
152281985293,-0.5403,-0.7456619,9.957599,0.005760193,0.06450806,0.01272583,12.88280667,77.64086478,6.39
152281985315,0.07872315,-0.45074615,10.339972,0.0055130003,0.033842467,-0.043833923,12.88280667,77.64086478,6.39
152281985336,-0.3071228,-0.692424,9.034327,-0.011343384,-0.014645386,-0.051042177,12.88276727,77.64089669,5.3
152281985357,-0.47210693,-1.8450454,9.570079,0.022618104,-0.01880188,-0.015370178,12.88276727,77.64089669,5.3
152281985378,-0.6943985,-1.0432098,10.342125,0.024694825,0.01662445,0.019937133,12.88276727,77.64089669,5.3
152281985400,-0.37495726,-0.9626953,9.53335,-0.014274597,0.033233643,-0.015490723,12.88276727,77.64089669,5.3
152281985421,-0.18807526,-1.1781647,9.633728,-0.012565613,-0.0070709228,-0.05507507,12.88276727,77.64089669,5.3
152281985442,-0.46157533,-1.0461991,9.390259,0.0036819458,-0.057646178,-0.06338348,12.88273129,77.64090778,5.56
152281985463,-0.78376925,-1.1252838,10.051875,0.028482055,-0.05923004,-0.0036392212,12.88273129,77.64090778,5.56
152281985485,0.10337067,-1.1821152,9.364896,-0.0065811155,-0.038952637,-0.0022979737,12.88273129,77.64090778,5.56
152281985506,-0.5351547,-0.6243469,9.95664,-0.0012039185,-0.051538087,0.016397094,12.88273129,77.64090778,5.56
152281985527,-0.64690095,-1.1222916,9.774904,-0.003401184,-0.039442442,0.034217834,12.8826828,77.64092496,5.74
152281985548,-0.25364226,-0.76660156,9.910817,-0.026005555,-0.03284607,0.060362242,12.8826828,77.64092496,5.74
152281985570,-0.8166717,-0.8014145,10.364138,0.032025147,0.004893494,0.0885849,12.8826828,77.64092496,5.74
152281985591,-0.49172822,-1.1181046,9.260808,-0.014395142,0.07843628,0.11069794,12.8826828,77.64092496,5.74
152281985612,0.014474487,-0.68835294,9.68338,0.0067382813,0.14282227,0.052789308,12.8826828,77.64092496,5.74
152281985633,-0.17288208,-1.0613953,9.919792,0.027384948,0.062432863,-0.100401305,12.88263905,77.64095201,5.42
152281985655,-0.25854644,-0.78466797,9.831375,1.4343261E-4,-0.050927736,-0.11713715,12.88263905,77.64095201,5.42
152281985676,-0.2904892,-1.2075974,10.565733,-0.0022994995,-0.06424256,-0.03834076,12.88263905,77.64095201,5.42
152281985697,-0.8908493,-0.6670593,9.920268,0.035449218,-0.020263672,0.038987733,12.88263905,77.64095201,5.42
152281985719,0.03948059,-1.2132218,8.955122,-0.10222931,0.0020828247,0.029464722,12.88258618,77.64098305,5.9
152281985740,-0.11330108,-0.5776886,9.080388,0.09090576,-0.0038970946,0.01077118,12.88258618,77.64098305,5.9
152281985761,-0.5738007,-0.71706694,10.827748,-0.03199005,-0.005241394,-0.0240448,12.88258618,77.64098305,5.9
152281985782,-0.4151581,-0.9217758,9.281626,-0.01146698,0.0019622804,0.0074737547,12.88258618,77.64098305,5.9
152281985803,-0.19597474,-0.8821747,9.82312,0.04008789,-0.0014526367,2.5939942E-5,12.88258618,77.64098305,5.9
152281985825,-0.5169678,-0.52660066,10.101883,0.01027832,-0.01732788,-0.00315094,12.8825477,77.64101353,5.04
152281985847,-0.29169005,-0.9004806,9.987628,0.014186096,-0.0023117065,0.012605285,12.8825477,77.64101353,5.04
152281985867,-0.51708984,-0.90143585,9.678713,-0.036997985,0.011976624,0.029705811,12.8825477,77.64101353,5.04
152281985889,-0.23437805,-0.6744766,9.681465,0.012843323,0.05009613,0.030192565,12.8825477,77.64101353,5.04
152281985910,-0.32841796,-0.610112,10.061682,-0.009025574,0.08149109,0.022740174,12.8825477,77.64101353,5.04
152281985931,-0.53264314,-0.28480682,10.414866,0.062324524,0.12253876,-0.0056015016,12.88250284,77.64104778,5.38
152281985952,-0.16965027,-0.6938583,10.654028,-0.014025879,0.09822998,-0.12776795,12.88250284,77.64104778,5.38
152281985973,0.11545257,0.4843689,8.04968,0.12683105,0.012231445,-0.19349518,12.88250284,77.64104778,5.38
152281985995,-0.10791626,0.022912597,9.0767975,-0.13056946,-0.05227051,-0.20620117,12.88250284,77.64104778,5.38
152281986017,-0.12083588,-0.2912674,9.965254,-0.002786255,-0.11360321,-0.1418167,12.88250284,77.64104778,5.38
152281986037,-0.25722963,-0.587854,10.3443985,0.1567688,-0.1954544,-0.10174408,12.88245451,77.64107417,5.52
152281986058,-0.6248871,-0.18370971,9.480108,-0.11945343,-0.21793517,0.0019744872,12.88245451,77.64107417,5.52
152281986080,-0.7252655,0.28803557,10.164456,0.08479919,-0.19472198,0.07832031,12.88245451,77.64107417,5.52
152281986101,-0.68171847,-0.18083802,10.036443,-0.006578064,-0.09527741,0.22321472,12.88245451,77.64107417,5.52
152281986122,-0.74393004,0.0060440064,9.555841,-0.01219635,0.07428436,0.28271788,12.88240574,77.64110621,5.62
152281986143,-0.38835755,-0.022071838,9.7851925,-0.011094665,0.19156647,0.23371887,12.88240574,77.64110621,5.62
152281986165,-0.1347168,-0.051387023,9.45331,-0.0054779053,0.21038055,0.08882904,12.88240574,77.64110621,5.62
152281986186,0.2688324,-0.20620117,10.038115,0.017851258,0.17214203,-0.0048599243,12.88240574,77.64110621,5.62
152281986207,-0.5022537,-0.15391846,9.464554,0.006982422,0.12632751,-0.067294315,12.88240574,77.64110621,5.62
152281986228,-0.023092652,-0.36891174,10.112651,0.023228455,0.04801788,-0.11457062,12.88237557,77.64113529,5.87
152281986250,0.30400544,-0.40504456,10.532353,0.020663451,-0.06314087,-0.14267425,12.88237557,77.64113529,5.87
152281986271,-0.10480652,-0.18706055,10.204895,0.038380433,-0.16002503,-0.12056122,12.88237557,77.64113529,5.87
152281986292,-0.63290405,-0.18466492,9.518872,-0.025515746,-0.18690339,-0.03504181,12.88237557,77.64113529,5.87
152281986313,-1.491806,0.044923402,9.684214,-0.003038025,-0.112867735,0.09640503,12.88237557,77.64113529,5.87
152281986335,-0.40414888,0.0528244,10.37012,0.008818055,0.04838562,0.1774002,12.88232206,77.64117056,6.63
152281986356,-0.32207337,-0.32165527,9.623678,0.031410217,0.1477066,0.09200592,12.88232206,77.64117056,6.63
152281986377,-0.12765655,-0.34546357,9.7260895,-0.053118896,0.09163208,-0.033209227,12.88232206,77.64117056,6.63
152281986398,-0.024165343,-0.58977205,9.540769,0.055236816,-0.004878235,-0.060328674,12.88232206,77.64117056,6.63
152281986420,-0.28762054,-0.40133667,10.132034,0.009545898,-0.022589112,-0.031007385,12.88227249,77.64120743,6.76
152281986441,-0.51781005,-0.03355713,9.263918,-0.046401978,0.0012344361,0.013586426,12.88227249,77.64120743,6.76
152281986462,-0.3827347,0.24986878,10.593251,0.012971496,0.039959718,0.0073562623,12.88227249,77.64120743,6.76
152281986483,-0.32135773,-0.075912476,10.431498,0.025057983,0.06047821,-0.010726929,12.88227249,77.64120743,6.76
152281986504,-0.25304413,0.22821502,10.408406,-0.0058486937,0.041056823,-0.044078063,12.88227249,77.64120743,6.76
152281986526,-0.37148437,0.037028503,9.978533,-0.008287048,9.872436E-4,-0.062036134,12.88221391,77.6412464,7.1
152281986547,-0.27373964,-0.14733735,9.990381,6.271362E-4,-0.04274292,-0.06814575,12.88221391,77.6412464,7.1
152281986568,-0.7816162,0.03224335,9.7573185,-0.016476441,-0.080976866,-0.04359131,12.88221391,77.6412464,7.1
152281986590,-0.6782471,0.079623416,10.044217,9.918213E-4,-0.07267304,0.017250061,12.88221391,77.6412464,7.1
152281986611,-0.6611389,-0.15248108,9.854945,0.007350159,-0.03431549,0.028237915,12.88221391,77.6412464,7.1
152281986632,-0.45248413,-0.17521515,9.698694,-0.022705078,-0.014038086,0.031532288,12.88216033,77.64127672,7.32
152281986653,-0.20985413,-0.3984665,9.917279,0.008816528,-0.00206604,0.02823639,12.88216033,77.64127672,7.32
152281986675,-0.18939209,-0.4774292,9.564097,-0.0020553588,-0.0021865845,0.022865295,12.88216033,77.64127672,7.32
152281986696,-0.250412,-0.4188034,10.169362,-0.0020599365,-0.0074401856,0.022988891,12.88216033,77.64127672,7.32
152281986717,-0.27314147,-0.33338013,10.055826,0.048031617,-0.01916046,0.027139282,12.88216033,77.64127672,7.32
152281986738,-0.53778684,-0.63164216,9.55369,-0.027220154,-0.022709657,0.03983307,12.88209495,77.64131491,7.95
152281986760,-0.3775894,-0.57397765,8.942442,-0.056785583,-0.017584229,0.048754882,12.88209495,77.64131491,7.95
152281986781,-0.42700195,-0.23790435,10.43305,0.065985106,0.028100586,0.062316895,12.88209495,77.64131491,7.95
152281986802,-0.638765,-0.60341036,9.665792,-0.037481688,0.08332519,0.07160492,12.88209495,77.64131491,7.95
152281986823,-0.20686188,-0.114794925,9.371478,6.3323975E-4,0.15430602,0.04826965,12.88202449,77.64135474,7.98
152281986845,-0.32482606,-0.38434753,10.441905,0.038743593,0.14453125,-0.030638123,12.88202449,77.64135474,7.98
152281986866,-0.08351288,-0.13657074,9.574743,-0.053483583,0.037876893,-0.11457062,12.88202449,77.64135474,7.98
152281986887,-0.48682252,-0.4466812,9.8767185,0.027626038,-0.120321654,-0.12886353,12.88202449,77.64135474,7.98
152281986908,-0.9418167,-0.4186859,9.628822,-0.034553528,-0.15305634,-0.027218629,12.88202449,77.64135474,7.98
152281986929,-0.65336,-0.49728698,10.001027,0.053401183,-0.050683595,0.06695862,12.88195426,77.64139827,8.55
152281986951,-0.54054105,-0.19627075,9.014943,-0.08280639,0.04129486,0.04484711,12.88195426,77.64139827,8.55
152281986972,-0.5337189,-0.16002044,10.150459,0.06623383,0.049240112,0.010646057,12.88195426,77.64139827,8.55
152281986993,-0.15110473,-0.54346925,10.454826,0.011259461,0.03726654,-0.025512695,12.88195426,77.64139827,8.55
152281987015,-0.6439087,-0.3911667,9.038393,-0.04358826,-0.016719054,-0.023431396,12.88195426,77.64139827,8.55
152281987036,-0.7287353,-0.49621278,9.993609,0.049372863,-0.03247986,-0.01756897,12.88188689,77.64144312,8.48
152281987057,-0.37734985,-0.5938385,9.91967,-0.024291992,-0.025769044,-9.536743E-4,12.88188689,77.64144312,8.48
152281987078,-0.410968,-0.3788437,9.76653,-0.0059677125,0.0035537719,0.0073547363,12.88188689,77.64144312,8.48
152281987099,-0.2949173,-0.5210968,9.439311,-0.022460938,0.024932861,0.003565979,12.88188689,77.64144312,8.48
152281987121,-0.67968446,-0.22055665,9.337138,0.011010742,0.024319459,-0.001928711,12.88181541,77.64148734,8.69
152281987142,-0.5787064,-0.28683624,10.005574,-7.171631E-4,0.030303955,-0.008528138,12.88181541,77.64148734,8.69
152281987163,-0.21367797,-0.50674134,9.68469,-0.004257202,0.025662232,-0.020378113,12.88181541,77.64148734,8.69
152281987185,-0.36407012,-0.49872437,9.626671,-0.010249329,0.017840575,-0.03113098,12.88181541,77.64148734,8.69
152281987206,-0.645105,-0.11658783,9.9739895,0.03239136,-0.016474914,-0.04261017,12.88181541,77.64148734,8.69
152281987227,-0.22026062,-0.63475496,9.583361,3.8604735E-4,-0.05459442,-0.03870392,12.88174359,77.64153066,9.09
152281987248,-0.14500579,-0.33505553,9.631696,-0.00901947,-0.069618225,-0.016224671,12.88174359,77.64153066,9.09
152281987270,-0.76474607,-0.35192412,9.757437,-0.0063323975,-0.053372193,0.011019898,12.88174359,77.64153066,9.09
152281987291,-0.50381166,-0.24508362,9.829704,-0.009022522,0.005015564,0.04508972,12.88174359,77.64153066,9.09
152281987312,-0.36083832,-0.62255096,10.201065,-0.043959044,0.06621857,0.0358078,12.88174359,77.64153066,9.09
152281987333,-0.3267395,-0.6875168,9.788307,0.06378784,0.061454773,-0.0077941893,12.88167502,77.64156835,9.24
152281987355,-0.1959732,-0.27080688,10.223679,-0.038215637,0.03983154,-0.0174469,12.88167502,77.64156835,9.24
152281987376,-0.5308487,-0.81828463,9.404495,0.041921996,-0.02197876,-0.05201874,12.88167502,77.64156835,9.24
152281987397,-0.66281587,-0.40576324,9.653112,-0.028692627,-0.052635193,-0.030155946,12.88167502,77.64156835,9.24
152281987418,-0.5247482,-0.8678177,9.638754,-0.00499115,-0.0439621,-0.0038864135,12.88167502,77.64156835,9.24
152281987440,-0.14177704,-1.0050446,9.676679,-0.0014465332,3.7841796E-4,0.025309753,12.88160536,77.64161465,9.27
152281987461,-0.4309494,-0.914595,9.8170185,-0.0032806396,0.04190979,0.019203186,12.88160536,77.64161465,9.27
152281987482,-0.26512757,-0.82426757,9.544235,-0.020993043,0.046548463,-0.012681579,12.88160536,77.64161465,9.27
152281987503,-0.3147766,-0.7370483,9.583478,0.010401917,-6.0577394E-4,-0.041879274,12.88160536,77.64161465,9.27
152281987524,-0.18377075,-0.50566256,10.387949,0.04155121,-0.056056213,-0.041390993,12.88152516,77.64166167,9.52
152281987546,-0.5797821,-1.199942,9.8279085,-0.0128067015,-0.107371524,-0.037483215,12.88152516,77.64166167,9.52
152281987567,-0.8036316,-0.6358322,9.516838,-0.003401184,-0.08464813,0.047045898,12.88152516,77.64166167,9.52
152281987588,-0.5218735,-1.03974,10.056299,0.008688355,-0.0150115965,0.057551574,12.88152516,77.64166167,9.52
152281987610,-0.61938477,-0.8761902,9.588504,-0.021847535,0.0356781,0.06573944,12.88152516,77.64166167,9.52
152281987707,-0.1828125,-0.94510347,10.000188,0.035324097,0.0713501,0.038619995,12.881453,77.64170166,9.4
152281987728,-0.3201599,-0.7390869,9.751096,-0.03235016,0.06365509,0.009188843,12.881453,77.64170166,9.4
152281987750,-0.26273498,-1.0178483,9.681224,0.03214569,0.05999298,-0.0040100096,12.881453,77.64170166,9.4
152281987771,-0.6928436,-0.8553726,9.891195,-0.03162384,0.044107057,-0.0031555176,12.881453,77.64170166,9.4
152281987792,-0.33583373,-0.698764,9.758158,0.009913635,0.05400238,-0.0227005,12.881453,77.64170166,9.4
152281987814,-0.26392823,-0.8101486,9.964414,0.013819885,-5.996704E-4,-0.050187685,12.88136591,77.64176348,9.32
152281987835,-0.43860474,-0.7802399,9.980688,-7.1258546E-4,-0.04653015,-0.056906126,12.88136591,77.64176348,9.32
152281987856,-0.6155548,-0.92237395,9.61339,-0.01732788,-0.088308714,-0.040290833,12.88136591,77.64176348,9.32
152281987877,-0.46313173,-0.91818696,9.41275,0.004295349,-0.10126038,-0.012438965,12.88136591,77.64176348,9.32
152281987898,-0.58277434,-0.5611771,9.752771,-0.008163452,-0.09832611,0.022618104,12.88129101,77.64180023,9.13
152281987920,-0.628952,-0.9532379,9.8615265,0.015779113,-0.051293947,0.064883426,12.88129101,77.64180023,9.13
152281987941,-0.6095718,-1.0031312,9.81307,-0.0078033446,0.045576476,0.108010866,12.88129101,77.64180023,9.13
152281987962,-0.34121856,-0.79376066,9.85961,0.008691406,0.10885773,0.06121521,12.88129101,77.64180023,9.13
152281987983,-0.16151734,-0.8448471,9.500807,-0.015986633,0.10458374,0.019081116,12.88129101,77.64180023,9.13
152281988005,-0.17850494,-0.7969879,9.759111,0.013330078,0.066345215,-0.038093567,12.88122437,77.64184513,9.18
152281988026,0.019381713,-1.0113862,9.654785,0.004046631,-0.022709657,-0.05898285,12.88122437,77.64184513,9.18
152281988047,-0.6076584,-0.9516861,9.800029,-0.024658203,-0.103215024,-0.05605011,12.88122437,77.64184513,9.18
152281988069,-0.48945466,-0.87678987,9.728601,0.042532347,-0.12508392,0.008085633,12.88122437,77.64184513,9.18
152281988090,-0.7606796,-0.74685824,9.66699,-0.050675966,-0.08440094,0.04863434,12.88122437,77.64184513,9.18
152281988111,-0.59437865,-0.79674834,9.774904,0.031291198,0.0042892457,0.10165405,12.8811577,77.6418923,8.89
152281988132,-0.468515,-1.0182068,9.744276,-0.016595459,0.08576508,0.0872406,12.8811577,77.6418923,8.89
152281988154,-0.29994202,-0.8806183,9.497694,-0.0023025512,0.10446167,0.04473419,12.8811577,77.6418923,8.89
152281988175,-0.30424803,-0.8837296,9.926849,0.004658508,0.07379303,-0.0025375367,12.8811577,77.6418923,8.89
152281988196,-0.31513673,-0.8048843,9.655624,0.010891723,0.04044342,-0.020622253,12.88108413,77.6419348,8.76
152281988217,-0.4207794,-0.8746368,9.814984,-0.026979065,0.011854554,-0.028930664,12.88108413,77.6419348,8.76
152281988238,-0.5391037,-0.8212738,9.530238,0.03434906,-0.017337035,-0.024534607,12.88108413,77.6419348,8.76
152281988260,-0.71784973,-0.83479464,9.891195,-0.02942047,0.01002655,0.011141968,12.88108413,77.6419348,8.76
152281988281,-0.5562149,-0.6182434,9.758992,0.014430237,0.065122984,0.013583374,12.88108413,77.6419348,8.76
152281988302,-0.52091825,-0.733461,10.1423235,-0.007069397,0.0824707,-0.025509644,12.88102518,77.64197703,8.72
152281988324,-0.4096527,-0.778804,9.845734,0.027383422,0.046180725,-0.060694885,12.88102518,77.64197703,8.72
152281988345,-0.31549224,-0.91076964,9.599988,-0.012077332,0.021383667,-0.07731018,12.88102518,77.64197703,8.72
152281988366,-0.29814452,-0.69876254,9.721187,0.012481689,-0.034191895,-0.08293152,12.88102518,77.64197703,8.72
152281988387,-0.3370285,-1.2348754,10.150218,0.005519104,-0.0677887,-0.0754776,12.88102518,77.64197703,8.72
152281988408,-0.7393845,-0.7411148,9.512532,-0.017326355,-0.06265564,-0.027832031,12.88095301,77.64201626,8.64
152281988430,-0.57666934,-0.81218415,10.262323,0.034709167,-0.018067932,-0.004005432,12.88095301,77.64201626,8.64
152281988451,-0.5535797,-0.6759125,9.722743,-0.015740966,0.016134644,-0.005107117,12.88095301,77.64201626,8.64
152281988472,-0.48299256,-0.7321442,9.757677,0.005026245,0.017842103,-0.021476746,12.88095301,77.64201626,8.64
152281988494,-0.56255496,-0.83610994,9.928045,0.009790039,0.01222229,-0.031495668,12.88095301,77.64201626,8.64
152281988515,-0.34612274,-0.8030899,9.671176,-0.0055999756,-0.0030395507,-0.03870392,12.88089153,77.64205294,8.37
152281988536,-0.40857697,-0.82319033,9.801706,0.006126404,-0.028816223,-0.04652252,12.88089153,77.64205294,8.37
152281988557,-0.5503494,-0.57386017,10.058217,-0.013056946,-0.03443451,-0.023065185,12.88089153,77.64205294,8.37
152281988579,-0.6209396,-1.0106674,9.350299,-9.5977786E-4,-0.017578125,-0.006573486,12.88089153,77.64205294,8.37
152281988600,-0.53491515,-0.8000992,10.005812,0.008808899,-0.0047546388,1.4343261E-4,12.88082933,77.6420839,8.45
152281988621,-0.6911682,-0.80404663,9.903276,0.009667968,0.012591553,0.004547119,12.88082933,77.6420839,8.45
152281988642,-0.66448975,-0.68320924,9.702283,-0.034184266,0.025415039,5.096436E-4,12.88082933,77.6420839,8.45
152281988663,-0.36705932,-0.926918,9.738653,0.041186523,0.050460815,-0.0036407472,12.88082933,77.6420839,8.45
152281988685,-0.36873475,-1.3766495,10.467867,-0.036993407,0.05473938,-0.036750793,12.88082933,77.6420839,8.45
152281988706,-0.1616394,-1.6368698,9.206967,-9.5977786E-4,-0.03113861,-0.09416962,12.88075982,77.64212296,8.43
152281988727,-0.39122924,-0.71192324,9.958432,0.00539093,-0.113233946,-0.083538815,12.88075982,77.64212296,8.43
152281988748,-0.92422944,-1.619281,10.112651,-0.005355835,-0.12667236,-0.015492248,12.88075982,77.64212296,8.43
152281988770,-1.2130417,-1.5388825,10.029022,0.01333313,-0.07401733,0.05315552,12.88075982,77.64212296,8.43
152281988791,-0.91740876,-1.4325241,9.869061,-0.010612488,0.015522766,0.08552857,12.88075982,77.64212296,8.43
152281988812,-0.18412933,-0.85740507,10.170675,-0.0038879395,0.08418121,0.07599793,12.88069763,77.64214676,8.0
152281988833,-0.23712921,-1.6983688,9.680033,0.04778595,0.17043304,0.047296144,12.88069763,77.64214676,8.0
152281988855,-0.6502533,-1.7742172,9.4308195,-0.09416656,0.18472596,-0.038700867,12.88069763,77.64214676,8.0
152281988876,0.24478607,-1.0920242,9.274205,0.04619751,0.10836945,-0.12385406,12.88069763,77.64214676,8.0
152281988897,-0.37830812,-1.467099,10.591934,0.022131348,-0.036875915,-0.20522308,12.88064409,77.6421745,7.51
152281988918,-0.84658206,-1.5049073,9.652034,0.0134536745,-0.16674042,-0.17443696,12.88064409,77.6421745,7.51
152281988940,-0.86991423,-0.9387649,9.7782545,0.009545898,-0.13693695,-0.025996398,12.88064409,77.6421745,7.51
152281988961,-0.29635468,-1.6527817,9.64653,-0.0015731811,-0.002069092,0.0482666,12.88064409,77.6421745,7.51
152281988982,-0.8096115,-0.9289535,9.628584,-0.013664246,0.06401978,0.009793091,12.88064409,77.6421745,7.51
152281989003,-0.12203522,-1.3553559,10.179532,0.0060028075,0.04471741,-0.037728883,12.88058498,77.64219859,7.06
152281989025,-1.1583664,-1.411467,9.428904,-0.021731567,0.02565918,-0.059355162,12.88058498,77.64219859,7.06
152281989046,-0.922554,-0.9561127,9.562184,0.020663451,0.026760865,-0.049821474,12.88058498,77.64219859,7.06
152281989067,-0.17180482,-1.0515839,10.030458,0.028848266,-0.017092895,-0.10772858,12.88058498,77.64219859,7.06
152281989088,-0.4730591,-1.2327225,9.281984,-0.036872864,-0.15758362,-0.17369843,12.88058498,77.64219859,7.06
152281989110,-1.082634,-1.2579651,9.292871,-0.008654785,-0.24933167,-0.06985626,12.8805267,77.64222427,6.77
152281989131,-1.0383651,-1.5574296,9.692354,0.028605651,-0.20595856,0.097624205,12.8805267,77.64222427,6.77
152281989152,-0.56291354,-1.4808578,10.126411,-0.0018112182,-0.060339354,0.20586243,12.8805267,77.64222427,6.77
152281989173,-0.39062804,-1.1257629,9.792132,0.00954895,0.06560822,0.2102646,12.8805267,77.64222427,6.77
152281989195,-0.19681092,-1.1085327,9.657417,0.0023391724,0.09382935,0.11705017,12.8805267,77.64222427,6.77
152281989216,-0.13507538,-1.0927429,9.752294,0.021395873,0.034822084,0.04594574,12.88047227,77.6422435,6.38
152281989237,-0.20829621,-1.0416565,9.388704,-0.029293824,-0.007928466,0.054867554,12.88047227,77.6422435,6.38
152281989259,-0.8517288,-0.7931595,9.679792,0.030070495,-0.0067077638,0.09078369,12.88047227,77.6422435,6.38
152281989280,-0.0112487795,-1.0661819,10.178815,0.0035614013,0.049116515,0.11448364,12.88047227,77.6422435,6.38
152281989301,-1.1502304,-1.0514648,10.158116,0.026771545,0.09419708,0.081007384,12.88042483,77.64227181,6.03
152281989322,-0.10731964,-0.5616547,9.6010685,-0.050790407,0.08772278,0.042033385,12.88042483,77.64227181,6.03
152281989343,0.035290528,-1.6271805,9.514325,0.02310791,0.075993344,0.0016098022,12.88042483,77.64227181,6.03
152281989365,-0.5547775,-1.123729,10.091237,0.03447113,0.041906737,-0.034181215,12.88042483,77.64227181,6.03
152281989386,-0.44997102,-0.85716856,10.521466,-0.02734375,0.009535218,-0.041267395,12.88042483,77.64227181,6.03
152281989407,-0.6579086,-0.9934403,9.924215,-0.03687439,0.002204895,-0.027583312,12.88036957,77.64230258,6.43
152281989428,-0.62883455,-1.1259995,9.95413,0.0027023316,0.02199707,-0.01585846,12.88036957,77.64230258,6.43
152281989450,0.013996887,-1.8967316,9.101085,0.026159668,0.050212096,-0.024284363,12.88036957,77.64230258,6.43
152281989471,-0.5517853,-0.15475312,9.409401,0.014918518,0.03506775,-0.06362762,12.88036957,77.64230258,6.43
152281989492,-0.54520416,-0.60436857,10.431256,0.01259613,-0.0013320923,-0.077552795,12.88036957,77.64230258,6.43
152281989513,-0.17647095,-0.6090332,9.96226,0.01809845,-0.0045135496,-0.061669923,12.88031344,77.64232637,6.32
152281989535,-0.5456848,-0.8574066,9.65275,0.03214569,0.0056259157,-0.047987364,12.88031344,77.64232637,6.32
152281989556,-0.81667024,-0.94438475,9.434166,0.021638488,0.021876525,-0.045181274,12.88031344,77.64232637,6.32
152281989577,-0.3836914,-0.90370786,9.901964,0.0068603517,0.028349305,-0.060572814,12.88031344,77.64232637,6.32
152281989598,-0.17814636,-0.682016,9.814026,-0.042607117,0.029205322,-0.07327576,12.88026048,77.64235185,6.44
152281989620,-0.30101928,-0.32356873,9.824316,-0.06802521,0.015888978,-0.08305206,12.88026048,77.64235185,6.44
152281989641,0.10360718,-1.077069,9.58994,0.081747435,-0.018679809,-0.10211182,12.88026048,77.64235185,6.44
152281989662,0.024165343,-0.9139984,10.635605,0.026651,-0.054104615,-0.10638428,12.88026048,77.64235185,6.44
152281989684,-0.14129639,-0.9745377,9.694509,0.0068588257,-0.07621765,-0.07059021,12.88026048,77.64235185,6.44
152281989705,-0.62692106,-1.1313843,9.26344,-1.05285646E-4,-0.08488922,-0.040290833,12.88020272,77.64237148,6.6
152281989726,-1.031784,-0.5031494,9.455704,0.011013794,-0.08049469,-0.0063293455,12.88020272,77.64237148,6.6
152281989747,-0.2172699,-0.9064606,10.055702,-0.003894043,-0.042985536,0.034223936,12.88020272,77.64237148,6.6
152281989768,-0.8205017,-0.76827544,9.356638,-0.011096192,0.002455139,0.055722047,12.88020272,77.64237148,6.6
152281989790,-0.18676147,-0.7846664,10.217099,0.02494049,0.04704132,0.04912262,12.88020272,77.64237148,6.6
152281989811,-0.9679001,-0.2565689,9.609682,-0.004623413,0.086868286,0.040081788,12.88013816,77.64238732,6.84
152281989832,-0.21727142,-0.7454239,10.052829,-0.0063339234,0.1055603,-0.011705017,12.88013816,77.64238732,6.84
152281989853,-0.3407379,-0.52815855,9.88904,0.0128479,0.084300235,-0.057392884,12.88013816,77.64238732,6.84
152281989875,-0.35162657,-1.0194016,9.3899,-8.3770754E-4,0.02688446,-0.10430908,12.88013816,77.64238732,6.84
152281989896,0.27098542,-1.8622742,10.299769,-0.011590576,-0.06888733,-0.13289642,12.88007413,77.64240746,7.02
152281989917,-0.61088866,-1.7093704,9.177895,0.050473023,-0.16307679,-0.10675354,12.88007413,77.64240746,7.02
152281989938,-0.7956146,-1.586621,11.010796,-0.0068191527,-0.1512268,0.010157776,12.88007413,77.64240746,7.02
152281989960,-0.6071808,-1.1934783,9.523059,-0.014271545,-0.047753908,0.105810545,12.88007413,77.64240746,7.02
152281989981,-1.1618378,-1.2679001,9.859134,0.0075897216,0.05265961,0.10471344,12.88007413,77.64240746,7.02
152281990002,-0.47593537,-1.549414,9.417658,-0.0038925172,0.06047821,0.013949585,12.88001801,77.64241953,6.84
152281990024,-0.044866942,-1.7109299,9.285093,0.0038009644,-0.053613283,-0.06936798,12.88001801,77.64241953,6.84
152281990045,-0.24574585,-1.1758957,10.28625,-0.0024291992,-0.108709715,-0.0024230957,12.88001801,77.64241953,6.84
152281990066,-0.9711288,-1.1562713,9.563736,-0.010125732,-0.071330264,0.087854005,12.88001801,77.64241953,6.84
152281990087,-0.20482635,-1.5756118,9.78268,-0.002671814,-0.005123901,0.12939148,12.88001801,77.64241953,6.84
152281990108,-0.4412384,-1.4003388,9.64366,0.0044158935,0.022850037,0.09298096,12.87996425,77.64244194,6.44
152281990130,-0.17156525,-1.1703904,9.953769,0.0066101076,-0.024665833,0.035443116,12.87996425,77.64244194,6.44
152281990151,-0.52450866,-1.6776688,9.943003,0.014801025,-0.1132309,0.026652526,12.87996425,77.64244194,6.44
152281990172,-0.42640075,-1.0426102,9.640192,0.012106324,-0.086112976,0.15797576,12.87996425,77.64244194,6.44
152281990193,-0.5190064,-0.5305481,10.737536,0.04131012,0.010755921,0.21698761,12.87996425,77.64244194,6.44
152281990215,-0.3274582,-0.47120363,9.958557,0.054260254,0.071963504,0.1887619,12.87991112,77.64245993,6.05
152281990236,-0.20817718,0.1167099,10.484255,-0.006208801,0.07831879,0.12181397,12.87991112,77.64245993,6.05
152281990257,-1.1423371,0.20763855,8.181044,0.10410309,0.036172487,0.054869078,12.87991112,77.64245993,6.05
152281990278,0.25997773,0.0887146,10.284216,-0.13753204,0.010272217,0.024938965,12.87991112,77.64245993,6.05
152281990299,-0.35390013,0.21397857,9.571634,0.0986084,-0.07988586,0.022251893,12.87986018,77.64248256,6.08
152281990321,-0.58193815,-1.0464401,9.844775,-0.07290497,-0.1632019,0.031414796,12.87986018,77.64248256,6.08
152281990342,0.3339157,-1.306662,8.586149,0.011987304,-0.2202591,0.08516083,12.87986018,77.64248256,6.08
152281990363,-0.7314865,-1.4839691,9.842143,0.016755676,-0.24054107,0.19902496,12.87986018,77.64248256,6.08
152281990384,-0.65766907,-1.3267578,10.130478,0.069163516,-0.11103515,0.37763977,12.87986018,77.64248256,6.08
152281990406,-0.33990175,-1.5112473,9.957956,0.06342316,0.0489975,0.41575927,12.87981552,77.64251277,6.16
152281990427,-0.40438843,-1.368274,10.094826,0.061834715,0.12633209,0.3623703,12.87981552,77.64251277,6.16
152281990449,-0.15194702,-1.1481369,10.089803,0.034715272,0.1722641,0.29725495,12.87981552,77.64251277,6.16
152281990469,-0.018426513,-1.0244262,9.785434,0.010034179,0.1530838,0.20403442,12.87981552,77.64251277,6.16
152281990491,-0.14715882,-1.0635498,10.47684,0.027012635,0.071595766,0.12291412,12.87981552,77.64251277,6.16
152281990512,0.15935974,-1.0697724,8.547984,0.025674438,0.028347779,0.119003296,12.87978292,77.64255788,5.97
152281990534,-0.3180069,-0.45960084,9.767487,0.008323669,0.002697754,0.1136261,12.87978292,77.64255788,5.97
152281990554,-0.4749756,-0.34307098,9.615784,0.033613585,-0.010252381,0.12890014,12.87978292,77.64255788,5.97
152281990576,-0.64869386,-0.23228303,10.197597,0.003076172,0.072573856,0.1835083,12.87978292,77.64255788,5.97
152281990597,-0.42245483,-0.26207122,9.671176,-0.002670288,0.18472596,0.17067567,12.87975459,77.64260347,5.92
152281990619,-0.42460784,-0.3409149,9.632296,-0.003276062,0.25363007,0.07209168,12.87975459,77.64260347,5.92
152281990639,0.5014145,-0.16408691,10.1156435,-4.699707E-4,0.19290924,-0.09306641,12.87975459,77.64260347,5.92
152281990661,0.11174011,-0.28372955,10.219254,0.036909483,0.015037537,-0.21365662,12.87975459,77.64260347,5.92
152281990682,-0.44530487,0.18263245,10.019809,0.038012695,-0.12752685,-0.16979218,12.87975459,77.64260347,5.92
152281990703,-0.3120224,-0.23228303,10.140287,-0.011094665,-0.13791046,-0.040049743,12.87973369,77.64265264,6.35
152281990724,-0.789035,-0.33780822,9.472933,0.042410277,-0.079148866,0.026522826,12.87973369,77.64265264,6.35
152281990746,-0.5426941,-0.30466765,9.997198,-0.021841431,-0.0074417116,0.055474855,12.87973369,77.64265264,6.35
152281990767,-0.8623749,0.08022003,9.893468,0.0047805784,0.0660965,0.050463866,12.87973369,77.64265264,6.35
152281990789,-0.19692993,-0.7019943,10.183121,0.045585632,0.092364505,-8.346558E-4,12.87973369,77.64265264,6.35
152281990809,0.11533203,-0.34749603,9.862004,-0.020993043,0.05253906,-0.071446225,12.87969991,77.64270748,6.87
152281990831,-0.3414566,-0.97393954,9.63708,0.057678223,-0.02576294,-0.09148254,12.87969991,77.64270748,6.87
152281990852,-0.42341003,-0.5350952,9.601067,-0.06289063,-0.06399689,-0.058128357,12.87969991,77.64270748,6.87
152281990873,-0.68913573,-0.0019744872,9.645335,0.03337097,-0.03492584,-0.0041290284,12.87969991,77.64270748,6.87
152281990894,-0.41934356,0.16349182,10.333511,-0.05250702,0.011860657,0.0055236816,12.87966228,77.64276234,7.07
152281990916,-0.3178894,-0.2663803,8.9769,-0.04225006,0.0022094727,-0.020135498,12.87966228,77.64276234,7.07
152281990937,0.05467224,0.8338394,9.894188,0.027268982,-0.025157165,-0.040168762,12.87966228,77.64276234,7.07
152281990958,-0.5406601,-0.17066956,10.430656,0.049739074,-0.1263031,-0.05776062,12.87966228,77.64276234,7.07
152281990979,-0.51493835,0.048994444,9.14284,-0.03113556,-0.1580658,0.007958984,12.87966228,77.64276234,7.07
152281991001,-0.7526642,-0.05102539,9.634567,0.014433289,-0.12557068,0.07404175,12.87962378,77.64282103,7.62
152281991022,-0.75266266,-0.030329894,10.000189,0.0016052246,-0.023200989,0.14404908,12.87962378,77.64282103,7.62
152281991043,-0.48694152,-0.7112061,9.780528,-0.008045959,0.09554138,0.14636993,12.87962378,77.64282103,7.62
152281991064,0.21666566,-1.3234085,9.262362,-0.01745453,0.11520843,0.069647215,12.87962378,77.64282103,7.62
152281991086,-0.4103729,-1.1191833,10.414148,-0.026487732,0.014057922,-0.01451416,12.87962378,77.64282103,7.62
152281991107,-0.28965148,-2.1600602,9.00896,-0.0053619384,-0.02979126,0.027751159,12.87958188,77.64289115,8.36
152281991128,-0.14093933,-1.4490311,8.454425,0.02371521,-0.0060928343,0.06354217,12.87958188,77.64289115,8.36
152281991149,-0.097509764,-1.2322433,8.319948,0.004171753,0.012103272,0.05730896,12.87958188,77.64289115,8.36
152281991170,-0.24394837,-1.7602189,8.125651,-0.0095092775,0.016003419,0.04411316,12.87958188,77.64289115,8.36
152281991192,-0.63673097,-1.5240479,9.74296,-0.0036468506,0.022851562,0.050830077,12.87958188,77.64289115,8.36
152281991213,-0.7942993,-1.3977096,10.545992,-0.0016921997,0.029571533,0.055595398,12.87955345,77.64295857,8.09
152281991234,-0.7696518,-0.85202485,10.418573,-0.005116272,0.07025299,0.053518675,12.87955345,77.64295857,8.09
152281991255,-0.10827484,-1.7106888,8.399872,-2.2888184E-4,0.122789,0.040448,12.87955345,77.64295857,8.09
152281991277,-0.9059265,-1.4129028,10.704038,0.04509888,0.12034454,-0.03210602,12.87955345,77.64295857,8.09
152281991298,0.062332153,-1.0797012,9.2853365,-0.011953736,0.05913391,-0.07645722,12.87952389,77.6430239,7.76
152281991319,-0.44351196,-1.1025543,10.362703,0.027258301,-0.008052063,-0.10210724,12.87952389,77.6430239,7.76
152281991340,-1.0820373,-1.2219543,10.4383135,-0.0033996582,-0.0025512695,-0.04432373,12.87952389,77.6430239,7.76
152281991362,-1.1028519,-1.0786254,9.072012,0.012721253,0.0739151,-0.012069702,12.87952389,77.6430239,7.76
152281991384,0.33116454,-1.0456054,9.747867,-0.010488892,0.11093597,-0.08512726,12.87952389,77.6430239,7.76
152281991404,0.63469696,-1.4922256,9.925174,0.046070863,-0.04311218,-0.2391861,12.87949424,77.6430832,7.41
152281991425,0.08661804,-1.7463424,8.875204,-0.0027893067,-0.2352829,-0.22501984,12.87949424,77.6430832,7.41
152281991447,-0.846701,-0.986261,8.660688,0.008206177,-0.2646057,-0.041513063,12.87949424,77.6430832,7.41
152281991468,-0.6015579,-1.4544144,8.142881,0.094947815,-0.18898621,0.0821106,12.87949424,77.6430832,7.41
152281991489,-1.01073,-0.19579315,8.80246,-0.089157104,-0.015750121,0.16775055,12.87949424,77.6430832,7.41
152281991510,-0.07059021,-0.41653138,10.414625,0.055603027,0.045574952,0.12682037,12.87945564,77.64313936,7.12
152281991532,0.37004852,-0.90634,10.301802,-0.04615326,0.055714417,0.072459415,12.87945564,77.64313936,7.12
152281991553,-0.3940994,-0.76552427,9.697977,0.030804444,0.037998963,0.045088194,12.87945564,77.64313936,7.12
152281991574,-0.7399826,-0.40588075,9.578453,-0.023680115,0.0057495115,0.031654358,12.87945564,77.64313936,7.12
152281991596,-0.06975098,-0.3427124,10.31353,0.016142273,-0.0042648315,0.041175842,12.87945564,77.64313936,7.12
152281991617,-0.29671174,-1.2253021,9.676442,-0.01916046,0.020283509,0.0601181,12.87942042,77.64319563,6.87
152281991638,-1.0051072,-0.4863983,9.073448,0.010282898,0.026271056,0.050708007,12.87942042,77.64319563,6.87
152281991659,0.19644928,-0.8477173,10.64015,0.0049057007,0.022732545,0.026771545,12.87942042,77.64319563,6.87
152281991681,-0.8185852,-0.3896103,8.865992,-0.029177856,0.017356873,0.020663451,12.87942042,77.64319563,6.87
152281991702,-0.33559418,-0.3089737,10.563101,0.018829346,0.011126709,0.019815063,12.87938421,77.64326116,6.91
152281991723,-0.78376925,-0.69960177,9.254704,-0.039312743,0.043374635,0.041918945,12.87938421,77.64326116,6.91
152281991744,-0.40821686,-0.7688736,10.007248,0.024079895,0.09884033,0.042041015,12.87938421,77.64326116,6.91
152281991765,-0.31513673,-0.16875458,9.775861,-0.020870972,0.13133545,-0.012559509,12.87938421,77.64326116,6.91
152281991787,-0.34277344,-0.7803589,8.876999,0.021762084,0.07843628,-0.09771271,12.87938421,77.64326116,6.91
152281991808,0.0790802,-0.8483154,10.414508,0.02664795,-0.042622376,-0.15721436,12.87935158,77.64332086,6.94
152281991829,-0.55370027,-0.6505478,10.087649,0.019198608,-0.1320465,-0.105407715,12.87935158,77.64332086,6.94
152281991850,-0.67752683,-0.9057419,9.810799,-0.013903809,-0.11812134,-0.01328888,12.87935158,77.64332086,6.94
152281991872,-1.0993836,-0.30370942,9.774066,0.0071060183,-0.016119385,0.06402893,12.87935158,77.64332086,6.94
152281991893,-0.47772828,-0.5116455,9.944077,0.020051574,0.07098694,0.038375854,12.87935158,77.64332086,6.94
152281991914,-0.3073593,-0.43650818,9.7775345,0.002581787,0.07184143,-0.019525146,12.87932275,77.6433731,6.67
152281991935,-0.2573471,-0.7913666,9.681105,0.034959413,0.057302855,-0.05018921,12.87932275,77.6433731,6.67
152281991957,-0.5065628,-0.38697815,9.518153,-0.033450317,0.028959656,-0.07523193,12.87932275,77.6433731,6.67
152281991978,-0.11761017,-0.70127714,9.958316,0.03984375,-0.04824066,-0.10675354,12.87932275,77.6433731,6.67
152281991999,-0.5877975,-0.7222122,9.995046,-0.03687439,-0.108227536,-0.06985779,12.87929571,77.64342801,7.06
152281992020,-1.2485749,-1.1166687,10.617418,0.018341064,-0.10199127,-0.010360718,12.87929571,77.64342801,7.06
152281992042,-1.3657058,-1.7545974,10.601744,-0.029174805,-0.061552428,0.03593292,12.87929571,77.64342801,7.06
152281992063,-0.577391,-0.61238253,8.926048,-0.0068222047,0.054736327,0.105076596,12.87929571,77.64342801,7.06
152281992084,-0.13687134,-1.0843674,11.053869,0.0063705444,0.15039214,0.046560667,12.87929571,77.64342801,7.06
152281992105,-0.09906311,-1.6020523,9.62643,0.011502075,0.13267669,-0.058128357,12.87925749,77.64347167,6.94
152281992127,0.24167633,-1.4613556,9.27744,0.012844848,0.0047714235,-0.16527252,12.87925749,77.64347167,6.94
152281992148,-0.30329132,-1.508017,9.404376,0.042652894,-0.1449997,-0.16697845,12.87925749,77.64347167,6.94
152281992169,-0.6897308,-0.7143189,10.2979765,-0.027470399,-0.11958313,0.016021729,12.87925749,77.64347167,6.94
152281992190,-0.9804596,-0.40241393,9.539091,0.011502075,0.058035277,0.12621155,12.87925749,77.64347167,6.94
152281992212,0.265361,-0.5890503,10.665993,0.009303284,0.050218202,-0.060942076,12.87922413,77.6435041,6.26
152281992233,-0.2600998,-0.8638687,9.098094,-0.03491974,-0.05166168,-0.084394835,12.87922413,77.6435041,6.26
152281992254,-0.4054672,-0.1809555,9.027265,-0.08574219,-0.043110657,0.0051483153,12.87922413,77.6435041,6.26
152281992276,-0.21775055,-0.054374695,9.437874,0.19183198,-0.026867677,0.0031951903,12.87922413,77.6435041,6.26
152281992297,-0.9887146,-1.5777695,10.86998,-0.11713562,-0.11494751,-0.05214691,12.87919148,77.64355081,6.37
152281992318,-0.55956113,-0.15798339,9.305672,1.6784668E-5,-0.10736847,0.076365665,12.87919148,77.64355081,6.37
152281992339,-0.16247407,-0.30310974,11.134389,0.015777588,-0.1059021,0.065979004,12.87919148,77.64355081,6.37
152281992360,-1.076294,-0.12352753,9.0368395,-0.019403076,-0.112133786,0.110328674,12.87919148,77.64355081,6.37
152281992382,-1.1253464,-0.63356173,10.315561,0.035203554,-0.010496521,0.22969207,12.87919148,77.64355081,6.37
152281992403,-0.64797974,-0.8285767,9.980688,-0.008291626,0.17617646,0.27685243,12.8791612,77.64360049,6.32
152281992424,0.12645873,-0.7421936,9.878157,0.014187622,0.35857695,0.21051177,12.8791612,77.64360049,6.32
152281992445,0.96526337,-0.7484177,8.762741,-0.033448793,0.3231491,-0.08060913,12.8791612,77.64360049,6.32
152281992467,-0.2859436,-1.0502716,10.962825,0.044729613,0.09884338,-0.2752289,12.8791612,77.64360049,6.32
152281992488,0.25974122,-0.8822937,9.5788145,0.030799866,-0.1024826,-0.2550705,12.8791612,77.64360049,6.32
152281992509,-1.3692963,-0.32428893,10.707624,0.03557129,-0.11445923,-0.090992734,12.87914305,77.6436432,6.05
152281992530,-0.72526854,-1.1821152,8.672293,0.0046661375,-0.037858583,-0.036016844,12.87914305,77.6436432,6.05
152281992552,-0.12694398,-0.55352175,8.578493,-0.16844788,-0.079273984,-0.08488617,12.87914305,77.6436432,6.05
152281992573,-0.10457001,0.7290329,9.0596895,0.37117767,-0.17456666,-0.10834046,12.87914305,77.6436432,6.05
152281992594,-0.35366058,-1.302594,9.34683,-0.21291962,-0.15025482,-0.06619568,12.87914305,77.6436432,6.05
152281992615,-0.5087158,0.300119,9.072372,9.994507E-4,-0.028819274,0.15797272,12.87910753,77.64370121,6.33
152281992637,-0.9383453,-1.3135971,10.863157,0.022987366,0.022973632,0.08943939,12.87910753,77.64370121,6.33
152281992658,-0.72454834,-1.1257614,9.541965,-0.06032715,0.06915283,0.08980713,12.87910753,77.64370121,6.33
152281992679,-0.32482758,-1.4589646,11.186554,0.035691835,0.07428284,0.03544464,12.87910753,77.64370121,6.33
152281992709,-0.23629303,-1.0718048,9.486211,-0.05922394,0.06280212,0.0043014525,12.87907241,77.64376363,6.45
152281992729,-0.21415862,-0.871405,9.591014,0.039720155,0.046304323,-0.020500183,12.87907241,77.64376363,6.45
152281992751,-0.44865417,-1.3796418,10.171755,0.0028289794,0.054248046,0.00894165,12.87907241,77.64376363,6.45
152281992772,-0.114019774,-1.2264999,9.507741,0.02250061,0.07123413,-0.047132872,12.87907241,77.64376363,6.45
152281992793,-0.56303406,-1.2464797,10.022202,-0.014762878,0.054858398,-0.06545715,12.87907241,77.64376363,6.45
152281992815,-0.19812775,-1.1122452,10.040627,-0.0036453246,0.063900754,-0.07670136,12.87907241,77.64376363,6.45
152281992807,0.108992,-1.3037888,9.581325,0.028849792,0.02664032,-0.15598603,12.87905318,77.64380216,5.44
152281992829,-0.13782653,-0.7375305,10.743401,0.026161194,-0.11616516,-0.22379455,12.87905318,77.64380216,5.44
152281992850,-0.8555557,-0.9070587,9.657298,-0.014152527,-0.25128937,-0.134729,12.87905318,77.64380216,5.44
152281992871,-1.2955948,-1.0863998,9.295385,-0.082559206,-0.16735534,0.067697145,12.87905318,77.64380216,5.44
152281992892,-0.47473755,-0.84424746,10.905391,0.0067352294,0.012348938,0.20855255,12.87903571,77.64384271,5.43
152281992913,-0.28427124,-1.2732804,12.478317,-0.024287414,0.031651307,0.09408112,12.87903571,77.64384271,5.43
152281992935,0.08027496,-3.3269196,9.138056,0.31497496,0.071351625,0.038499452,12.87903571,77.64384271,5.43
152281992956,-0.3184845,0.5230118,10.087049,-0.2863373,0.098716736,0.084796146,12.87903571,77.64384271,5.43
152281992977,0.25531158,-0.31997985,9.57606,0.099946596,0.088702396,0.010279846,12.87900827,77.64388172,5.23
152281992998,-0.74512786,-0.5805588,10.385074,-0.025872802,0.08565064,-0.01292572,12.87900827,77.64388172,5.23
152281993020,-0.09415893,-0.24520417,7.4631987,-0.026489258,0.16029358,-0.012557983,12.87900827,77.64388172,5.23
152281993041,1.1224747,-0.39762726,12.391695,-0.005105591,0.033972166,-0.27193147,12.87900827,77.64388172,5.23
152281993062,-0.68159485,-0.766359,8.779492,0.056210328,-0.21146241,-0.27327576,12.87900827,77.64388172,5.23
152281993083,-1.1582474,-0.36580047,10.339851,-0.00499115,-0.214151,-0.016471863,12.87898531,77.64393316,5.34
152281993105,-1.101059,-0.6646668,9.780649,-0.017451476,-0.040182494,0.14857177,12.87898531,77.64393316,5.34
152281993126,-0.5956955,-1.1499313,9.5654125,0.028486634,0.129747,0.15418701,12.87898531,77.64393316,5.34
152281993147,0.5633911,-0.8517853,10.09949,-0.065704346,0.11008148,-0.07682495,12.87898531,77.64393316,5.34
152281993168,-0.65025026,0.02865448,9.322064,0.13636169,0.002456665,-0.10638428,12.87898531,77.64393316,5.34
152281993190,0.3267395,-1.1456238,9.05395,-0.1291031,-0.009759521,-0.025753785,12.87894566,77.643972,5.48
152281993211,-0.21655273,-0.58534545,9.375303,0.14833374,-0.057769775,-0.09551239,12.87894566,77.643972,5.48
152281993232,-1.2106491,-3.5274398,12.376742,-0.0774353,-0.18116608,-0.1271576,12.87894566,77.643972,5.48
152281993253,-0.31764984,0.49118805,7.332788,-0.0058395388,-0.049591064,0.078077696,12.87894566,77.643972,5.48
152281993275,0.4479355,-0.90550387,12.22719,-0.1501236,-0.063517764,0.17007598,12.87894566,77.643972,5.48
152281993296,-0.82971036,-0.28061676,9.2986145,0.19695282,0.008317566,0.11851654,12.87891244,77.64400926,5.72
152281993317,-0.14560242,-0.84245455,10.742923,-0.059225462,0.03617096,0.07172699,12.87891244,77.64400926,5.72
152281993338,0.010289001,-0.24664001,8.31624,0.18180542,0.0046539307,0.02225647,12.87891244,77.64400926,5.72
152281993360,-0.19609681,-0.36245424,10.4219265,-0.10785065,-0.023931885,0.005763245,12.87891244,77.64400926,5.72
152281993381,-0.34397277,0.25729066,9.466711,-0.037356567,-0.03651581,0.018348694,12.87888016,77.6440513,5.67
152281993402,-0.4174301,-0.68955076,10.41044,-0.043833923,-0.06803284,0.04888611,12.87888016,77.6440513,5.67
152281993424,-0.7824524,0.045281984,8.839193,0.021028137,-0.020632934,0.11570587,12.87888016,77.6440513,5.67
152281993445,-0.02046051,-0.3672394,10.521464,0.014190674,0.06756439,0.12914276,12.87888016,77.6440513,5.67
152281993466,-0.35437623,0.07579193,9.674288,0.0485199,0.12583923,0.10531922,12.87888016,77.6440513,5.67
152281993487,0.036491394,-0.40420684,10.030459,-0.010731506,0.14123078,0.012361145,12.87883182,77.64410362,6.33
152281993509,-0.19334412,-0.054019164,9.260687,0.061224364,1.3275146E-4,-0.11285858,12.87883182,77.64410362,6.33
152281993530,-0.075733945,0.052822877,10.533908,-0.05458374,-0.12032013,-0.09636688,12.87883182,77.64410362,6.33
152281993551,-0.24981079,-0.22821502,9.726568,-0.037117004,-0.19044343,-0.030885315,12.87883182,77.64410362,6.33
152281993572,-0.19980164,-1.4315628,10.447409,0.005393982,-0.16943207,0.0964035,12.87883182,77.64410362,6.33
152281993594,-1.2044281,-0.81122434,9.309499,-0.016226197,-0.070230104,0.17617646,12.87879319,77.64415822,6.7
152281993615,-0.9089157,-0.4791046,9.695467,0.018952942,0.02211609,0.1869278,12.87879319,77.64415822,6.7
152281993636,0.1556488,-0.9784851,10.540129,0.011134339,0.057058714,0.13916168,12.87879319,77.64415822,6.7
152281993657,-0.39553374,-1.806044,10.245455,0.04033203,0.065855406,0.11485138,12.87879319,77.64415822,6.7
152281993678,-0.54676056,-1.7110459,9.963577,-0.030151367,0.062309265,0.08088531,12.87877169,77.6442206,6.78
152281993700,0.3931381,-1.0178452,10.1448345,0.055725098,0.020777892,0.043139648,12.87877169,77.6442206,6.78
152281993721,-0.4511673,-1.2852417,10.728683,0.0051513673,-0.005001831,0.05192871,12.87877169,77.6442206,6.78
152281993742,-0.90113986,-1.613179,8.870776,-0.05531616,-0.00438385,0.06842804,12.87877169,77.6442206,6.78
152281993763,-0.9052048,-1.3159943,9.653348,0.003930664,0.030296326,0.10092163,12.87877169,77.6442206,6.78
152281993785,-0.5569321,-2.1297927,9.864995,0.025430297,0.1295044,0.13244171,12.87874604,77.64428002,6.51
152281993806,0.06580047,-2.3738587,9.539212,-0.03796692,0.13145752,0.005024719,12.87874604,77.64428002,6.51
152281993827,0.033618163,-1.8391815,10.083936,0.016262818,0.049116515,-0.092092894,12.87874604,77.64428002,6.51
152281993848,-0.01651306,-1.0548156,10.1569195,0.05267029,-0.046528626,-0.13533935,12.87874604,77.64428002,6.51
152281993870,-1.0977097,-0.9847061,9.135544,-0.06802978,-0.11591949,-0.06937103,12.87874604,77.64428002,6.51
152281993891,-0.71186525,-1.1542374,10.573149,0.026533509,-0.05434723,0.06183014,12.87872349,77.64433006,5.82
152281993913,-0.93822634,-1.5463028,9.005852,0.07711029,-0.012814331,0.08626251,12.87872349,77.64433006,5.82
152281993934,-0.46277314,-1.1900116,7.367247,-0.3425339,0.07514038,0.076243594,12.87872349,77.64433006,5.82
152281993955,0.26428834,-1.2083145,14.258095,0.3336731,0.0044052126,-0.05850067,12.87872349,77.64433006,5.82
152281993977,-0.56590575,-2.3531616,8.780805,0.19366913,0.30092162,-0.11800079,12.87870439,77.64436398,5.05
152281993998,-0.78975374,0.6747147,7.7554827,-0.2041214,0.02859955,0.07087097,12.87870439,77.64436398,5.05
152281994018,-0.0025131225,-0.7456619,10.781207,0.08320923,0.13292542,0.012356567,12.87870439,77.64436398,5.05
152281994040,-0.32853547,0.17054597,8.54583,0.059638977,0.059138488,-0.13509826,12.87870439,77.64436398,5.05
152281994061,-0.2526825,-0.030207824,10.985914,0.02286682,-0.015014648,-0.18359986,12.87870439,77.64436398,5.05
152281994082,0.19668579,-0.30262908,9.592812,0.035324097,-0.20828247,-0.21341248,12.87869661,77.64439089,4.63
152281994103,-0.61232454,0.13621216,9.551893,-0.02722168,-0.31566924,-0.0966156,12.87869661,77.64439089,4.63
152281994125,-1.4033935,0.47012788,10.11911,0.034465026,-0.2561737,0.17263794,12.87869661,77.64439089,4.63
152281994146,-1.0697129,0.7096527,10.238752,0.04106598,-0.020880127,0.33842468,12.87869661,77.64439089,4.63
152281994167,-0.64606476,-0.10606079,9.8786335,-0.02783661,0.24483795,0.35797578,12.87869661,77.64439089,4.63
152281994188,0.23545226,0.101875305,9.883898,-0.017694091,0.35527954,0.11839905,12.87867607,77.64444364,5.73
152281994210,-0.07836914,-0.31710815,9.699175,-0.038827516,0.21160431,-0.11554718,12.87867607,77.64444364,5.73
152281994231,-0.1686966,-0.43519288,9.988104,3.845215E-4,-0.0130584715,-0.21194763,12.87867607,77.64444364,5.73
152281994252,-1.4333038,-0.9525238,9.051313,0.03752289,-0.10724945,-0.079876706,12.87867607,77.64444364,5.73
152281994273,-1.025206,0.31723022,9.577974,-0.032110594,0.019189453,0.07037964,12.87867607,77.64444364,5.73
152281994295,0.11401673,-0.40492553,10.51309,0.053527832,0.10324097,-0.015863037,12.87865619,77.64450118,6.51
152281994316,-0.11736908,-0.184906,10.051035,0.008815003,0.0028167726,-0.13619843,12.87865619,77.64450118,6.51
152281994337,-0.6098114,-0.43052825,9.647966,0.021154786,-0.10724793,-0.11786957,12.87865619,77.64450118,6.51
152281994358,-0.873381,-0.34342957,10.125455,0.021763612,-0.11482086,-0.024414063,12.87865619,77.64450118,6.51
152281994380,-0.6967926,-0.7652847,9.72286,-0.025634766,-0.059114076,0.03739319,12.87862796,77.64455587,6.81
152281994401,-0.75493777,-0.23037109,9.732435,9.94873E-4,0.004525757,0.054496765,12.87862796,77.64455587,6.81
152281994422,-0.3619171,-0.4343567,9.819531,-0.016468812,0.05644989,0.031045532,12.87862796,77.64455587,6.81
152281994443,-0.06544647,-0.3038269,9.718195,-0.05543976,0.037023924,-0.03113098,12.87862796,77.64455587,6.81
152281994465,-0.3471985,-0.6071228,9.998634,0.016142273,-0.042134095,-0.058374025,12.87862796,77.64455587,6.81
152281994486,-0.61890715,-0.5117661,10.215544,0.029826354,-0.0945404,-0.026000977,12.87859775,77.64460797,7.14
152281994507,-0.38309175,-1.0635498,10.064077,0.0064926147,-0.08574524,0.038496397,12.87859775,77.64460797,7.14
152281994528,-0.60299224,-0.61968076,9.996119,0.013209534,-0.048606873,0.06695862,12.87859775,77.64460797,7.14
152281994550,-0.38141632,-0.86602324,10.046133,-0.014398193,-0.006703186,0.08479462,12.87859775,77.64460797,7.14
152281994571,-0.5679382,-0.6495911,9.602499,0.008204651,0.06280365,0.103120424,12.87859775,77.64460797,7.14
152281994592,-0.19669342,-0.95515597,9.510977,-0.011950684,0.10421906,0.054257203,12.87856724,77.64465262,6.98
152281994613,-0.19477996,-0.77461547,9.44577,-0.039801024,0.050831605,-0.0153686525,12.87856724,77.64465262,6.98
152281994635,-0.4096527,-0.80823517,9.913211,0.055238344,0.0061203004,-0.011705017,12.87856724,77.64465262,6.98
152281994656,-0.43202513,-0.6854828,9.864278,-0.049942017,-0.01965332,-0.030761719,12.87856724,77.64465262,6.98
152281994677,-0.72921294,-0.18358764,9.502602,0.09824371,-0.05447235,-0.013903809,12.8785525,77.64470978,7.17
152281994698,-0.575119,-1.1070999,10.338773,-0.041026305,-0.075114444,0.023718262,12.8785525,77.64470978,7.17
152281994720,-0.6655655,-0.80129546,9.565654,0.0049057007,0.010266113,0.09774323,12.8785525,77.64470978,7.17
152281994741,-0.43513793,-0.9781235,9.9319935,-0.018179322,0.029449463,0.04838867,12.8785525,77.64470978,7.17
152281994762,-0.36586303,-0.7094101,10.008204,0.016145324,0.03226013,0.055718996,12.8785525,77.64470978,7.17
152281994783,-0.08482666,-0.78968966,10.116362,-0.008164978,0.039466858,0.015777588,12.87853053,77.6447782,7.33
152281994805,-0.46110076,-0.6243469,9.776581,-0.009146119,-0.013182068,-0.0030303956,12.87853053,77.6447782,7.33
152281994826,-0.35796508,-0.809552,9.929959,0.0013610839,-0.03675537,-0.001687622,12.87853053,77.6447782,7.33
152281994847,-0.5922241,-0.7341751,9.747625,0.0011138916,-0.07707367,0.012971496,12.87853053,77.6447782,7.33
152281994868,-0.48598328,-0.84604186,10.391296,-0.05043335,-0.014401245,0.092373654,12.87853053,77.6447782,7.33
152281994890,-0.21104889,-0.7043869,10.27046,0.051574707,0.06365509,0.09432526,12.87850475,77.64483852,7.15
152281994911,-0.34540558,-0.56859434,10.221646,-0.029296875,0.04801636,0.04105835,12.87850475,77.64483852,7.15
152281994932,-0.43322295,-0.5797211,9.623082,-0.015737915,0.051072694,0.032632448,12.87850475,77.64483852,7.15
152281994953,-0.5201996,-0.70618135,9.958914,0.03214874,0.001963806,-0.0174469,12.87850475,77.64483852,7.15
152281994975,-0.6228546,-0.92655945,9.747746,-0.02905426,-0.030531311,0.0074768066,12.87850475,77.64483852,7.15
152281994996,-0.78042144,-0.8249817,9.704676,0.028114319,0.018702697,0.07917786,12.87848981,77.64490195,7.1
152281995017,-0.5862442,-0.46079713,9.774427,-0.07901764,0.10409393,0.070259094,12.87848981,77.64490195,7.1
152281995038,-0.58349,-0.8377884,9.127764,0.03166046,0.12693787,-0.012435913,12.87848981,77.64490195,7.1
152281995060,0.0029891967,-1.0098327,10.333511,0.0064926147,0.03568268,-0.09575653,12.87848981,77.64490195,7.1
152281995081,-0.41156617,-0.7303497,10.215065,-8.361816E-4,-0.09490814,-0.12788697,12.8784736,77.64497811,7.33
152281995102,-0.7440491,-0.78263247,10.34332,-0.005354309,-0.13387756,-0.026365662,12.8784736,77.64497811,7.33
152281995123,-0.8291138,-0.6733993,9.308306,-0.032476805,-0.083789065,0.03104248,12.8784736,77.64497811,7.33
152281995145,-0.33834687,-0.6842865,9.739731,0.022129823,-0.03981018,0.07551117,12.8784736,77.64497811,7.33
152281995166,-0.5021332,-0.6208771,9.983679,-0.017204285,0.031404115,0.08149872,12.8784736,77.64497811,7.33
152281995187,-0.43286285,-0.7961502,9.868708,0.028968811,0.07391815,0.061338805,12.87844933,77.64504145,6.78
152281995208,-0.5314453,-0.84687805,9.281744,0.0013641358,0.0884552,0.012968445,12.87844933,77.64504145,6.78
152281995230,-0.4327423,-0.2862381,9.657419,-0.0168396,0.032870483,-0.038583376,12.87844933,77.64504145,6.78
152281995251,-0.5350357,-0.92787474,9.957117,0.0058792112,-0.039320372,-0.049209595,12.87844933,77.64504145,6.78
152281995272,-0.31537628,-1.1560303,10.073647,-0.01317749,-0.07425995,-0.017082214,12.87844933,77.64504145,6.78
152281995293,-0.61710966,-0.9685562,10.185751,0.0034362793,-0.033581544,0.0398407,12.8784289,77.64510735,7.15
152281995315,-0.8232544,-0.9516846,10.831813,-0.011827087,0.03225708,0.0628067,12.8784289,77.64510735,7.15
152281995336,-1.2151978,-1.3414764,9.842502,-0.009268189,0.04814148,0.029702758,12.8784289,77.64510735,7.15
152281995357,0.17239837,-0.98578036,9.476878,0.05328064,0.032258607,-0.021478271,12.8784289,77.64510735,7.15
152281995378,-1.0045074,-0.94020236,9.753728,-0.043711852,-0.006097412,-0.03430481,12.87841308,77.64517103,6.99
152281995400,-0.99218595,-1.2144165,8.618095,-0.013908386,-0.035902403,-0.023677062,12.87841308,77.64517103,6.99
152281995421,-0.5398239,-0.8185272,9.664953,-9.552002E-4,-0.024542237,0.011509704,12.87841308,77.64517103,6.99
152281995442,-0.8535202,-1.0584061,10.5680065,0.090911865,0.0077087404,0.035687257,12.87841308,77.64517103,6.99
152281995463,-0.5842102,-1.5448685,10.046732,-0.124220274,0.025666809,0.020057678,12.87841308,77.64517103,6.99
152281995485,-0.24754028,-1.6556565,8.072771,-0.031007385,0.04142151,0.0044204714,12.87839888,77.64523204,6.63
152281995506,-0.5461609,-0.6949356,10.563219,0.11742554,-0.01941223,-0.056910705,12.87839888,77.64523204,6.63
152281995527,-0.68279266,-1.7672775,9.751811,-0.09465484,-0.05142059,-0.036016844,12.87839888,77.64523204,6.63
152281995548,-0.9809372,-0.8554947,10.401108,0.11766815,0.0035568238,0.049609374,12.87839888,77.64523204,6.63
152281995570,-0.33356324,-1.3537979,10.495262,-0.057397462,0.048628233,0.035562135,12.87839888,77.64523204,6.63
152281995591,-0.8782867,-1.0244262,9.132433,-0.09709778,0.084788516,0.0398407,12.87838319,77.64529499,6.76
152281995612,-0.19788818,-1.1189407,9.739252,0.0806488,0.10213776,-0.017816162,12.87838319,77.64529499,6.76
152281995633,0.080395505,-1.1971909,10.331836,-0.09490509,6.271362E-4,-0.18897858,12.87838319,77.64529499,6.76
152281995655,-0.0076553347,-1.5232117,9.730519,0.14576416,-0.17431946,-0.16063079,12.87838319,77.64529499,6.76
152281995676,-1.2068222,-1.8629898,7.8538284,0.06562195,-0.12594147,0.0333725,12.87837077,77.64535053,6.12
152281995697,-0.5854065,-0.7123993,8.878794,-0.09258576,0.01857605,0.14551239,12.87837077,77.64535053,6.12
152281995718,-0.5316864,-1.062474,8.482305,-0.041148376,0.03579712,0.027751159,12.87837077,77.64535053,6.12
152281995740,0.28797454,-2.6032119,15.305435,-0.14694671,0.025787354,0.010160828,12.87837077,77.64535053,6.12
152281995761,0.40055695,-0.27978057,-0.6365067,0.46403044,-9.613037E-4,-0.12594299,12.87837077,77.64535053,6.12
152281995782,0.09966125,0.09433746,7.801544,-0.41377106,0.06573792,-0.03944092,12.87835895,77.64539223,5.11
152281995804,-0.5042877,-0.5524429,9.1907,0.16959076,0.013327027,-0.02771454,12.87835895,77.64539223,5.11
152281995824,0.051325988,-0.30610198,11.069542,-0.027101135,-0.03419342,-0.091236874,12.87835895,77.64539223,5.11
152281995846,-0.5434128,-0.009033203,9.08709,0.018466186,-0.08538361,-0.050309755,12.87835895,77.64539223,5.11
152281995867,-0.5241501,-0.09326172,10.516439,-0.074624635,-0.12117462,-0.020623779,12.87835895,77.64539223,5.11
152281995917,-0.35318297,-0.7402786,8.328923,-0.005718994,-0.087091066,0.08675232,12.87834106,77.64543927,5.19
152281995938,-0.5868408,-0.25764924,10.783963,0.016760254,-0.018069457,0.13122253,12.87834106,77.64543927,5.19
152281995959,-0.65360105,-0.45995942,10.794489,0.06904449,0.0020889281,0.1012909,12.87834106,77.64543927,5.19
152281995981,-0.7798233,0.23587342,8.281662,-0.051045228,0.007098389,0.11900482,12.87834106,77.64543927,5.19
152281996002,-0.49340057,0.21122742,10.4300585,-0.028567504,0.017358398,0.023226928,12.87834106,77.64543927,5.19
152281996023,-0.6215378,-0.2001007,11.046209,0.12585449,0.0068496703,0.051564027,12.87832085,77.64548125,5.67
152281996044,-0.9586853,-0.86279297,9.003697,-0.14071503,0.040934753,0.12254639,12.87832085,77.64548125,5.67
152281996065,-0.9442093,0.11778717,9.644376,0.026167298,0.18203583,0.1427063,12.87832085,77.64548125,5.67
152281996087,-0.20685883,-1.3010375,9.088045,-0.002909851,0.2635315,0.0115005495,12.87832085,77.64548125,5.67
152281996108,0.22815552,0.115753174,10.052834,0.023725891,0.13426971,-0.17761382,12.87830095,77.64552567,5.63
152281996129,-0.2009964,-0.9259613,10.5006485,0.14075622,-0.096495055,-0.26496735,12.87830095,77.64552567,5.63
152281996150,-1.1515458,-0.6457642,8.501086,-0.03956146,-0.18690033,-0.1250824,12.87830095,77.64552567,5.63
152281996172,-1.0080993,-0.591922,9.492075,0.13220367,-0.13546905,-0.024287414,12.87830095,77.64552567,5.63
152281996193,-0.57104796,-0.6150131,9.771436,-0.10015412,-0.104559325,0.023719788,12.87830095,77.64552567,5.63
152281996214,-0.28941345,-0.025186157,9.615184,-0.0015670776,0.0018432618,0.07880859,12.87827979,77.64558378,5.9
152281996235,-0.69703215,-0.72149503,9.581924,-0.023432922,0.038005065,0.021276856,12.87827979,77.64558378,5.9
152281996257,-1.1263031,-0.3586258,9.1963215,-0.009628296,2.5634764E-4,0.011631775,12.87827979,77.64558378,5.9
152281996278,0.073458865,-0.8483139,10.19927,-0.011341858,-0.0023086548,-0.0049835206,12.87827979,77.64558378,5.9
152281996299,-0.4490158,-0.5404755,9.860807,0.04473572,0.006237793,0.016148377,12.87827979,77.64558378,5.9
152281996320,-0.8737396,-1.0324433,9.6505995,-0.0070663453,0.0018432618,0.011016846,12.87825683,77.64564671,6.39
152281996342,-0.1178482,-0.5398804,10.003656,-0.031863403,-0.016111756,-0.006575012,12.87825683,77.64564671,6.39
152281996363,-0.37292328,-1.3652847,7.4739685,-0.049827576,-0.050691225,0.021154786,12.87825683,77.64564671,6.39
152281996384,0.014472961,-2.380319,11.223162,0.025921632,0.054373167,0.06683807,12.87825683,77.64564671,6.39
152281996405,-0.32375032,-1.8942153,9.87612,0.07405548,0.074043274,-7.141113E-4,12.87824316,77.64570513,6.54
152281996427,-0.12850037,-1.1433502,9.6709385,-0.08634643,0.030545045,-0.016470337,12.87824316,77.64570513,6.54
152281996448,-0.4037903,-0.5790024,10.682025,0.100802615,0.005633545,-0.045788575,12.87824316,77.64570513,6.54
152281996469,-1.0074997,-1.2104676,9.356638,-0.066921994,0.008439636,-0.0112167355,12.87824316,77.64570513,6.54
152281996490,-0.8549576,-1.1220535,9.2986145,0.0014877319,0.07795105,0.027139282,12.87824316,77.64570513,6.54
152281996511,0.19334106,-1.2559326,10.388903,0.08052673,0.10274658,-0.07670136,12.87822902,77.64575977,6.24
152281996533,-0.05993805,-1.6055253,10.382444,0.031169128,-0.12288513,-0.2675354,12.87822902,77.64575977,6.24
152281996554,-1.0216156,-1.0325623,8.845652,-0.034309387,-0.27572328,-0.13448639,12.87822902,77.64575977,6.24
152281996575,-0.9598816,-1.0227509,9.617696,-0.07205506,-0.1612442,0.116192624,12.87822902,77.64575977,6.24
152281996597,-0.7028931,-1.5328995,9.318716,0.090667725,-0.036631774,0.1886383,12.87822902,77.64575977,6.24
152281996618,-0.59701234,-1.0435699,9.626188,-0.20937347,0.021755982,0.07257996,12.87821019,77.64580921,4.91
152281996639,-0.7239502,-0.41712648,10.082744,0.22860718,-0.0015731811,0.04522095,12.87821019,77.64580921,4.91
152281996660,0.3558136,-0.6505478,8.434328,-0.047987364,0.043499757,0.13464355,12.87821019,77.64580921,4.91
152281996682,-0.5995239,-0.19746704,9.845853,0.08701019,0.06341247,0.082839966,12.87821019,77.64580921,4.91
152281996703,-0.36275178,-0.5819931,11.210119,-0.026730347,0.028475951,0.037527464,12.87819445,77.64586788,5.13
152281996724,-0.9249466,-0.8327621,8.568326,0.019938659,0.052178957,0.073069766,12.87819445,77.64586788,5.13
152281996745,-0.47749025,-0.122810364,10.128085,-0.046647646,0.11985016,0.041923523,12.87819445,77.64586788,5.13
152281996767,-0.57882386,-0.08548431,9.60705,0.16287231,0.09615479,-0.06729279,12.87819445,77.64586788,5.13
152281996788,0.28534395,-0.9977493,10.307185,-0.15989685,0.004776001,-0.13412018,12.87819445,77.64586788,5.13
152281996809,-0.6287155,0.121017456,9.730998,0.06012726,-0.10016022,-0.10137329,12.87818565,77.64590355,4.54
152281996830,-1.3355529,-0.33816528,10.684054,0.066596985,-0.11738739,-0.017085265,12.87818565,77.64590355,4.54
152281996852,-0.6677185,-0.18801728,8.906072,-0.0630127,0.03617401,0.13305359,12.87818565,77.64590355,4.54
152281996873,-0.15745087,-0.73286134,9.663159,0.027386475,0.15491028,0.06708374,12.87818565,77.64590355,4.54
152281996894,-0.4206589,-0.079380795,10.407328,-0.0801178,0.12657471,-0.07791748,12.87818565,77.64590355,4.54
152281996915,-0.06807556,-0.23299865,9.588501,0.06757965,-0.031744383,-0.1868988,12.87816383,77.64595359,4.89
152281996937,-0.50177765,-0.11168671,10.41331,-0.013052369,-0.1421875,-0.12898406,12.87816383,77.64595359,4.89
152281996958,-0.86022186,-0.42430726,11.812754,0.014067078,-0.12606506,0.01211853,12.87816383,77.64595359,4.89
152281996979,-0.7535019,0.91328126,5.627904,0.11791535,-0.03847046,-0.020994568,12.87816383,77.64595359,4.89
152281997000,-0.7487167,-0.23922424,5.857254,-0.100157164,-0.023809815,0.03140869,12.87816383,77.64595359,4.89
152281997021,-0.94325256,-0.17222138,9.224077,0.058781434,-0.014157104,0.05657501,12.87813921,77.64602724,5.84
152281997043,-0.8606995,0.00771637,10.138374,-0.076818846,-0.020384217,0.029089356,12.87813921,77.64602724,5.84
152281997064,-0.6659256,-0.41581267,9.880669,-0.009144592,-0.014402771,0.04350128,12.87813921,77.64602724,5.84
152281997085,-1.1861222,-1.2761536,10.498253,-0.08097534,-0.020266723,0.044725038,12.87813921,77.64602724,5.84
152281997106,-0.8200226,-1.4581254,9.571398,0.021032715,-0.020993043,0.042646788,12.87811616,77.64608469,6.29
152281997128,-0.27062988,-1.2054443,10.244855,-0.0046188356,0.007098389,0.05779419,12.87811616,77.64608469,6.29
152281997149,-0.25938416,-1.4991623,9.771436,0.006864929,0.017230224,0.06647186,12.87811616,77.64608469,6.29
152281997170,-0.4000824,-1.6946564,10.427305,0.009059143,0.015158081,0.032388307,12.87811616,77.64608469,6.29
152281997192,-0.37459868,-1.6905899,9.524495,0.010647583,0.011126709,0.052052308,12.87811616,77.64608469,6.29
152281997213,-0.37100983,-1.9365692,10.369043,0.024816895,0.0224823,0.042774964,12.87810548,77.64614401,6.2
152281997234,-0.62141573,-2.5285554,8.867663,-0.045791626,-0.0028015138,0.029092407,12.87810548,77.64614401,6.2
152281997255,-0.48921508,-2.3084168,9.336182,-0.052996825,0.013807679,0.06512604,12.87810548,77.64614401,6.2
152281997277,-0.6790848,-2.1935592,9.839154,-0.032719422,0.04056244,0.07795258,12.87810548,77.64614401,6.2
152281997298,-0.3014969,-2.1202195,10.070537,-0.016714478,0.073919676,0.057919312,12.87810548,77.64614401,6.2
152281997311,-0.40570372,-2.1288362,9.569481,0.04876251,0.071107484,-0.009996032,12.87810062,77.64619065,5.14
152281997332,0.03864441,-2.2631881,10.707388,0.010403442,0.0062423707,-0.1402237,12.87810062,77.64619065,5.14
152281997353,-0.44195405,-1.7039902,9.747388,0.01089325,-0.05007019,-0.123120114,12.87810062,77.64619065,5.14
152281997375,-0.7342407,-2.112207,9.390735,0.016020203,-0.06473084,-0.06607056,12.87810062,77.64619065,5.14
152281997396,-0.8599838,-1.7337799,10.017177,-0.040660094,-0.031381227,0.056459047,12.8780908,77.64625563,4.81
152281997417,-0.23940583,-1.9871795,9.927806,-0.012928772,0.057913207,0.13744965,12.8780908,77.64625563,4.81
152281997438,0.13890228,-2.4360733,9.798233,0.023475647,-0.0101272585,-0.06436463,12.8780908,77.64625563,4.81
152281997460,-0.8086548,-2.1586242,9.81355,0.038499452,-0.042617798,-0.09050293,12.8780908,77.64625563,4.81
152281997481,-0.8408371,-2.3480194,9.9033985,0.019685363,0.01955719,0.07013855,12.8780908,77.64625563,4.81
152281997502,-0.57379913,-2.425424,9.669741,0.0046569826,0.040934753,0.108860776,12.87808037,77.64626968,2.61
152281997524,-0.53432006,-3.0121446,9.701685,0.0011138916,0.022973632,0.056941222,12.87808037,77.64626968,2.61
152281997545,-0.519841,-2.2877152,9.413829,-0.020019531,0.017718505,0.015541077,12.87808037,77.64626968,2.61
152281997566,-0.72084045,-0.50410765,10.249641,0.027381897,0.042518616,0.0050323484,12.87808037,77.64626968,2.61
152281997587,-1.0771316,-0.7091751,9.682899,0.009178162,0.05253906,0.05584259,12.87808037,77.64626968,2.61
152281997608,-0.9411011,-0.59323883,9.654427,-0.014517212,0.028588867,0.12205658,12.87808486,77.64626559,0.6
152281997630,-0.4539215,-0.7057053,9.756599,-0.02184906,0.0039138794,0.062805176,12.87808486,77.64626559,0.6
152281997651,-0.93116915,-0.64277345,9.75696,-2.3040772E-4,0.0047714235,-0.007800293,12.87808486,77.64626559,0.6
152281997672,-1.0085754,-0.66706085,9.737337,-0.0036468506,-0.0126953125,-0.0018066406,12.87808486,77.64626559,0.6
152281997694,-0.7946579,-0.7082138,9.791176,-0.002796936,-0.045550536,-0.0014450073,12.87808486,77.64626559,0.6
152281997715,-0.7389053,-0.6753143,9.738535,0.008204651,-0.04079132,-0.0037582398,12.87808463,77.64626278,0.0
