timestamp,accx,accy,accz,gyrx,gyry,gyrz,latitude,longitude,speed
152282855547,-0.27111053,-0.5782852,9.775862,0.0024612427,-0.0484375,-1.296997E-4,12.89069805,77.6440019,0.0
152282855567,0.09499359,-0.9775284,9.819773,-0.016476441,0.069322206,-0.013208007,12.89069805,77.6440019,0.0
152282855589,-0.30365142,-0.5995804,9.89359,0.018830871,-0.0054412843,0.0021896362,12.89069805,77.6440019,0.0
152282855611,-0.070950314,-0.55065,9.861644,0.016636658,0.0027435303,-0.0030593872,12.89069805,77.6440019,0.0
152282855631,-0.24921723,-0.6969696,9.767965,0.002581787,0.028765868,0.0025588989,12.89069805,77.6440019,0.0
152282855652,0.2514847,-0.7816757,9.774309,0.014555359,-0.03450928,-0.088458255,12.89069805,77.6440019,0.0
152282855673,-0.30137786,-0.7386063,9.683497,0.013214111,-0.023513794,-0.16432495,12.89069805,77.6440019,0.0
152282855695,-0.6419983,-0.71970063,9.946469,-0.01720581,-0.039759826,-0.08540344,12.89069805,77.6440019,0.0
152282855716,-0.063769534,-0.6718445,9.742244,-0.0013259888,-0.0016540528,0.011352539,12.89069805,77.6440019,0.0
152282855737,-0.11581574,-0.6777054,9.865236,0.008937073,0.025338745,0.0021957397,12.89069805,77.6440019,0.0
152282855758,-0.33535463,-0.51319885,9.837477,-0.0047470094,-0.043676756,-0.007946777,12.89069805,77.6440019,0.0
152282855779,0.04701843,-0.47730866,9.838196,0.0036834716,-0.044525146,-0.010394287,12.89069805,77.6440019,0.0
152282855801,-0.04989166,-0.8282135,9.644136,-0.0013290405,-0.030358886,-0.0042816163,12.89069805,77.6440019,0.0
152282855822,0.088653564,-0.73920286,9.898733,-0.0038925172,0.001272583,-0.005259705,12.89069796,77.64400189,0.0
152282855843,0.05168152,-0.72209626,9.791655,0.0051498413,0.013124084,-0.0023284913,12.89069796,77.64400189,0.0
152282855864,-0.10062103,-0.6292511,9.798355,0.0012420655,0.0049407957,-0.0033065795,12.89069796,77.64400189,0.0
152282855886,-0.110191345,-0.52719724,9.850039,-0.0023056031,-0.0147216795,-0.0051376345,12.89069796,77.64400189,0.0
152282855907,-0.119880676,-0.5111664,9.844175,0.0013641358,-0.040005494,-0.007826233,12.89069796,77.64400189,0.0
152282855928,-0.036730956,-0.5827133,9.698573,-0.003036499,-0.0450119,-0.010150147,12.89069796,77.64400189,0.0
152282855949,0.25231934,-0.793042,9.800749,0.0036834716,-0.028521728,-0.008435058,12.89069796,77.64400189,0.0
152282855971,0.08554077,-0.6297302,9.859133,-7.141113E-4,-0.01227417,-0.0042831423,12.89069796,77.64400189,0.0
152282855992,0.18352509,-0.43603057,9.775145,-0.0020584106,0.002128601,-0.0033081055,12.89069796,77.64400189,0.0
152282856013,0.077645876,-0.5555512,9.823839,-0.0015670776,0.015325928,-0.0030609132,12.89069796,77.64400189,0.0
152282856035,-0.0077789305,-0.59934235,9.737696,-9.5977786E-4,0.021188354,-0.0024490356,12.89069796,77.64400189,0.0
152282856056,-0.023692321,-0.6599976,9.844296,2.609253E-4,0.020332336,-8.6364744E-4,12.89069796,77.64400189,0.0
152282856077,-0.07681122,-0.65186465,9.839987,-8.361816E-4,0.035850525,0.0021896362,12.89069796,77.64400189,0.0
152282856098,-0.1975296,-0.86362916,9.680748,-0.004136658,0.039022826,0.0010925293,12.89069796,77.64400189,0.0
152282856120,-0.25794372,-0.6436081,9.821562,-0.004135132,0.035359193,0.0058532716,12.89069796,77.64400189,0.0
152282856141,-0.4048706,-0.9489319,9.717957,-7.1563723E-4,0.04146881,0.024913024,12.89069796,77.64400189,0.0
152282856162,-0.4437515,-1.1352112,9.720591,-0.007923889,0.017276,0.03479767,12.89069796,77.64400189,0.0
152282856183,-0.34073943,-0.04779663,10.031178,0.04411926,-0.0031219483,0.008666992,12.89069796,77.64400189,0.0
152282856204,-0.44458467,-0.82893527,10.155362,-0.048347473,0.101452634,0.04372406,12.89069796,77.64400189,0.0
152282856226,-0.7812576,-0.5476578,9.495781,-0.009632873,0.02815094,-0.0020812987,12.89069796,77.64400189,0.0
152282856247,-1.0096527,-0.6647827,9.976501,0.014801025,-0.0075164796,-0.0018432618,12.89069796,77.64400189,0.0
152282856269,-0.7639084,-0.58534545,9.718674,0.0051559447,-0.115019225,-0.012834167,12.89069796,77.64400189,0.0
152282856290,-0.24825744,-1.2707688,9.762938,-0.008283997,-0.11342926,-0.019433593,12.89069796,77.64400189,0.0
152282856311,-0.3022171,-1.1628494,9.805292,-0.00914154,-0.12613373,-0.019677734,12.89069796,77.64400189,0.0
152282856332,0.35557097,-1.2141769,9.6575365,-0.0025497437,-0.062242128,-0.020899963,12.89069796,77.64400189,0.0
152282856353,0.0013153076,-0.6364334,9.857458,-0.016351318,0.05124054,-0.005259705,12.89069796,77.64400189,0.0
152282856374,-0.24933624,-0.75965726,9.687208,0.015780639,0.12478638,0.004389954,12.89069796,77.64400189,0.0
152282856396,-0.5736801,-0.7155136,10.056422,-0.02526703,0.1141571,0.045553587,12.89069796,77.64400189,0.0
152282856417,-0.5286957,-0.59180754,9.78974,-0.04090271,0.016181946,-0.005874634,12.89069788,77.64400184,0.0
152282856438,-0.44398957,-1.0685761,9.711855,-0.02795868,-0.04684601,-0.08161926,12.89069788,77.64400184,0.0
152282856459,-0.13986206,-1.3090531,9.703479,-0.017208863,-0.11575165,-0.1677475,12.89069788,77.64400184,0.0
152282856481,-0.12048034,-0.7260437,9.937978,-0.016476441,-0.06431885,-0.22823182,12.89069788,77.64400184,0.0
152282856502,-0.35378265,-0.42179567,9.97363,-0.019166565,0.001034546,-0.19401398,12.89069788,77.64400184,0.0
152282856523,-0.27338257,-0.31387788,9.920149,-0.002668762,0.023384094,-0.15736541,12.89069788,77.64400184,0.0
152282856544,-0.3058029,-0.52540433,9.811755,-0.009997559,0.0099456785,-0.15516815,12.89069788,77.64400184,0.0
152282856566,-0.50453186,-0.9509689,9.745473,-0.0051116943,-0.04636078,-0.13256225,12.89069788,77.64400184,0.0
152282856587,-0.19848481,-1.1900116,9.830299,-0.007192993,-0.07250519,-0.09029083,12.89069788,77.64400184,0.0
152282856608,-0.092004396,-1.3914856,9.743797,-0.016844178,-0.016183471,-0.009049987,12.89069788,77.64400184,0.0
152282856629,0.11521149,-1.3208969,9.355924,0.0022186278,-0.0039733886,-0.016503906,12.89069788,77.64400184,0.0
152282856651,-0.0084991455,-0.8091904,9.723936,0.0014877319,0.010189819,-0.019799804,12.89069788,77.64400184,0.0
152282856672,0.17204133,-0.95443726,9.591016,-0.0088943485,0.026441956,-0.038371276,12.89069788,77.64400184,0.0
152282856693,0.24813537,-0.8668625,9.677159,-0.0070617674,0.04623108,-0.07929687,12.89069788,77.64400184,0.0
152282856714,-0.08865662,-0.89569396,10.054744,-0.004620361,0.066143796,-0.09774323,12.89069788,77.64400184,0.0
152282856736,-0.44351044,-1.2402588,9.6143465,-0.0013198853,0.032182314,-0.13378449,12.89069788,77.64400184,0.0
152282856757,-0.23832703,-1.2979263,9.869301,0.008331299,0.0015213012,-0.13292694,12.89069788,77.64400184,0.0
152282856778,-0.4017563,-0.9900894,9.704796,-0.003152466,-0.014355469,-0.15296173,12.89069788,77.64400184,0.0
152282856800,-0.41443938,-1.1748139,10.048884,-0.0043762205,-0.010441589,-0.16921234,12.89069788,77.64400184,0.0
152282856821,-0.33822784,-1.1569885,9.836996,-0.01732483,-0.0062957765,-0.15882416,12.89069788,77.64400184,0.0
152282856842,-0.22528534,-1.0865189,9.634209,-0.022331238,0.016178895,-0.16004944,12.89069788,77.64400184,0.0
152282856864,-0.005024719,-0.7037872,10.079035,-0.0038848878,0.020091247,-0.20696716,12.89069788,77.64400184,0.0
152282856884,-0.058027647,-0.59993744,10.172232,-8.270264E-4,0.04525604,-0.28784332,12.89069788,77.64400184,0.0
152282856906,-0.25998077,-0.7801193,9.364299,-0.025874328,0.11110382,-0.3308487,12.89069788,77.64400184,0.0
152282856927,-0.2354538,-1.1234909,10.228941,0.0366745,0.10975647,-0.41453552,12.89069788,77.64400184,0.0
152282856948,-0.33104858,-1.2524612,9.027983,-0.012316895,0.076286316,-0.46243286,12.89069788,77.64400184,0.0
152282856970,-0.34026033,-1.3125213,10.631292,0.014199829,0.04623108,-0.52815855,12.89069788,77.64400184,0.0
152282856991,0.041036986,-2.284247,9.51253,0.022862244,-0.05455475,-0.56298065,12.89069788,77.64400184,0.0
152282857013,-1.5269821,-0.8794235,9.991338,0.08383179,-0.04599304,-0.541478,12.89069261,77.64400305,0.52
152282857033,-0.32638246,-1.8753144,9.648924,0.031297304,0.060281374,-0.32278746,12.89069261,77.64400305,0.52
152282857054,-0.038883973,-1.1927643,10.014069,0.0012451172,0.035604857,-0.33292693,12.89069261,77.64400305,0.52
152282857076,-0.8805603,-1.8517456,10.289121,-0.009744262,0.02009735,-0.36102143,12.89069261,77.64400305,0.52
152282857097,-0.25938264,-2.3212159,9.207449,0.031906128,-0.054422,-0.34135437,12.89069261,77.64400305,0.52
152282857118,-0.35198823,-1.5905701,10.306353,0.06135254,-0.10218964,-0.324498,12.89068493,77.64400168,0.62
152282857139,-0.0013168335,-2.0923448,9.476641,-0.00413208,-0.05466614,-0.2651245,12.89068493,77.64400168,0.62
152282857161,-0.42053986,-1.4046447,10.101526,0.013098145,0.035604857,-0.20807037,12.89068493,77.64400168,0.62
152282857182,0.3566498,-1.9175476,8.853907,0.025309753,0.13333741,-0.1736145,12.89068493,77.64400168,0.62
152282857203,-0.09990387,0.029255677,10.562863,0.02641449,0.110493466,-0.24398498,12.89068493,77.64400168,0.62
152282857224,-0.41994172,0.3866211,10.531517,0.0073547363,0.027664185,-0.33011323,12.89067638,77.64399775,0.73
152282857246,0.20614013,-0.14697723,10.152374,0.04033966,-0.027429199,-0.40818328,12.89067638,77.64399775,0.73
152282857267,0.6069397,-0.58319247,9.154208,0.04840088,-0.03451233,-0.45741883,12.89067638,77.64399775,0.73
152282857289,-0.9170502,-2.4334397,9.150377,0.034231566,0.08752899,-0.37592775,12.89067638,77.64399775,0.73
152282857310,-0.6294327,-0.48041838,10.880026,-0.08634491,0.1525177,-0.34025878,12.89067638,77.64399775,0.73
152282857331,-0.053123474,0.46558684,10.937698,0.058425903,0.14543457,-0.49211732,12.89066918,77.64399348,0.58
152282857352,0.06807709,-0.85346067,8.834763,0.050717164,0.0858139,-0.6028015,12.89066918,77.64399348,0.58
152282857374,-0.4358551,0.03463745,9.831136,0.10899353,0.027911376,-0.64373016,12.89066918,77.64399348,0.58
152282857394,-0.7401031,-0.04157715,9.837,0.06293793,-0.032067873,-0.60817873,12.89066918,77.64399348,0.58
152282857416,-0.94086,0.25525513,9.425794,0.026779175,-0.035983276,-0.37776488,12.89066284,77.64398784,0.73
152282857437,-0.7445297,0.47551423,9.622722,0.034965515,0.01776886,-0.16652527,12.89066284,77.64398784,0.73
152282857458,-0.061735533,0.059521485,9.711499,0.0023422241,0.07665253,-0.19316407,12.89066284,77.64398784,0.73
152282857480,-0.51996154,0.11240234,10.223439,0.015292359,0.032917786,-0.23873138,12.89066284,77.64398784,0.73
152282857501,-0.3529419,-0.06861267,10.091835,0.0365448,-0.008978272,-0.27746278,12.89066284,77.64398784,0.73
152282857522,-0.4500931,-0.007118225,10.000307,0.031053161,-0.08337555,-0.24655151,12.8906541,77.64397224,1.97
152282857543,-0.96550596,0.14877471,9.837118,0.025798034,-0.08129883,-0.12511139,12.8906541,77.64397224,1.97
152282857565,-0.6789627,-0.14279175,9.861287,0.018833924,-0.022660827,-0.022854615,12.8906541,77.64397224,1.97
152282857586,-0.62261355,0.049713135,9.648085,0.01077118,0.035003662,-0.034701537,12.8906541,77.64397224,1.97
152282857607,-0.67370147,0.035115052,10.1283245,0.01651306,0.06480408,-0.035557557,12.8906541,77.64397224,1.97
152282857628,-0.28881532,-0.03918152,10.012871,0.022009278,9.109497E-4,-0.11374664,12.89064387,77.64394804,2.63
152282857649,-0.37734985,0.103190616,10.038714,0.023474121,-0.08288574,-0.13366394,12.89064387,77.64394804,2.63
152282857671,-0.7320862,-0.158107,10.071376,0.009431457,-0.18306732,-0.08931427,12.89064387,77.64394804,2.63
152282857692,-0.98763883,-0.5775665,10.1816845,0.0207901,-0.15350342,0.02149353,12.89064387,77.64394804,2.63
152282857714,-0.93368226,-0.8771469,10.1460285,-0.041268922,-0.028651427,0.13680725,12.89063615,77.64392289,2.54
152282857735,-0.351268,-0.534256,10.030337,-0.01965027,0.110983275,0.15183564,12.89063615,77.64392289,2.54
152282857756,0.34887084,-0.94701844,9.480467,0.07368927,0.06394501,-0.015769958,12.89063615,77.64392289,2.54
152282857777,-0.5973679,-1.2416961,9.250517,-0.11395111,-0.0058044433,-0.04117737,12.89063615,77.64392289,2.54
152282857798,-0.3192032,-0.8755951,9.040665,-0.048721313,0.012762452,0.016848754,12.89063615,77.64392289,2.54
152282857819,-0.5736786,-0.88923186,10.531158,0.0492569,-0.049664307,-0.012223816,12.89062438,77.6438883,3.88
152282857841,-0.7715683,-1.3743789,9.964894,-0.056292724,-0.012037659,0.033703614,12.89062438,77.6438883,3.88
152282857862,-0.022494506,-0.40109405,10.949663,0.02262268,0.011912537,-0.010758972,12.89062438,77.6438883,3.88
152282857883,-0.94959104,-1.6208389,9.683497,-0.08622284,-0.04563446,-0.02211914,12.89062438,77.6438883,3.88
152282857905,-0.99158937,-0.29760283,10.404698,0.0056427,-0.08546142,0.025886536,12.89062438,77.6438883,3.88
152282857926,-1.3222748,-1.1663208,9.498416,0.019326782,-0.07006836,0.036395263,12.89060905,77.64384942,4.04
152282857947,-0.6422348,-0.49860382,9.475206,-0.134729,0.026931763,0.13583069,12.89060905,77.64384942,4.04
152282857968,0.28749847,-2.2552917,8.866351,0.20600128,0.10744171,0.054714967,12.89060905,77.64384942,4.04
152282857990,-0.38034362,0.3598221,8.603259,-0.109680176,6.668091E-4,-0.06463623,12.89060905,77.64384942,4.04
152282858011,0.018663025,-0.3519272,11.561148,0.14772949,0.030718993,0.018798828,12.89059,77.64381189,4.22
152282858032,0.14297028,-1.3164718,10.084297,-0.013658142,0.03952179,-0.03006134,12.89059,77.64381189,4.22
152282858053,-0.84765625,-0.5676376,9.614107,-0.045057677,-0.00983429,-0.034338377,12.89059,77.64381189,4.22
152282858075,0.20745698,-1.4522629,9.81989,1.5258789E-5,-0.032925416,-0.0824707,12.89059,77.64381189,4.22
152282858096,-1.2147186,-0.7558319,10.988783,0.011264038,-0.050880432,-0.028964233,12.89059,77.64381189,4.22
152282858117,-0.99936676,-0.7831131,8.421165,0.0068588257,-0.028038025,0.010743713,12.89053903,77.64373,5.32
152282858139,-0.509433,-1.6244278,9.544838,-0.0048629763,0.011174011,-8.605957E-4,12.89053903,77.64373,5.32
152282858215,-0.96837616,-0.9644867,9.437037,2.4414063E-5,-0.01118164,-0.037513733,12.89053903,77.64373,5.32
152282858237,-0.649176,-1.236911,8.328082,-0.045906067,-0.047462463,-0.012345886,12.89053903,77.64373,5.32
152282858258,-0.8841507,-0.9647247,9.813311,0.037161253,0.051734924,6.0272217E-4,12.89053903,77.64373,5.32
152282858279,-0.5428116,-1.056372,10.86352,0.010649109,0.006163025,-0.0059921267,12.89052141,77.64368447,5.42
152282858300,-0.07824707,-1.165364,9.899691,-0.0027893067,0.0056747436,-0.012712097,12.89052141,77.64368447,5.42
152282858322,-0.97364044,-0.70558625,9.804575,0.015289307,0.003237915,-0.033477783,12.89052141,77.64368447,5.42
152282858343,-0.09535217,-1.0432129,9.952214,-0.0056015016,0.02754364,-0.010881042,12.89052141,77.64368447,5.42
152282858364,-0.7531403,-0.98650205,9.54244,0.02103119,-0.02425537,-0.032992553,12.89052141,77.64368447,5.42
152282858385,0.008731079,-1.4174484,9.331517,-0.025874328,-0.009840393,-0.040812682,12.89050982,77.64361714,5.61
152282858407,-0.18604279,-1.1080551,9.825391,0.011013794,-0.071647644,-0.054371644,12.89050982,77.64361714,5.61
152282858428,-0.49938202,-1.2219528,9.926249,0.022984315,-0.10670929,-0.041300964,12.89050982,77.64361714,5.61
152282858449,-0.50704193,-1.2860839,9.412031,-0.0095092775,-0.11746063,-9.841919E-4,12.89050982,77.64361714,5.61
152282858471,-0.5058441,-1.1159515,9.848366,-0.002911377,-0.10341034,0.04811554,12.89049007,77.64351429,5.86
152282858492,-0.61088866,-1.2734009,9.835684,0.027990723,-0.02840271,0.11860504,12.89049007,77.64351429,5.86
152282858513,-0.18807983,-1.2016144,9.951616,0.009431457,0.061383057,0.124469,12.89049007,77.64351429,5.86
152282858535,-0.27374116,-0.79364014,10.001506,-0.05103607,0.08044128,0.058862306,12.89049007,77.64351429,5.86
152282858556,-0.36227417,-0.91950226,9.504039,0.013212586,0.07726135,0.030647278,12.89049007,77.64351429,5.86
152282858577,-0.42796022,-0.8726028,9.756482,-0.014518738,0.09668579,0.017826844,12.89046701,77.64343568,7.18
152282858598,-0.40079957,-0.8272583,9.824557,0.0064941407,0.07408752,-0.030551147,12.89046701,77.64343568,7.18
152282858620,-0.17718963,-0.8370682,10.062404,0.015530395,0.019482423,-0.080760196,12.89046701,77.64343568,7.18
152282858641,-0.3749588,-0.8442459,9.805532,-0.0075561525,-0.0550354,-0.08173828,12.89046701,77.64343568,7.18
152282858662,-0.54879457,-0.6981659,9.612073,0.00771637,-0.078855895,-0.03604584,12.89046701,77.64343568,7.18
152282858683,-0.47772828,-0.9842285,9.728964,-0.043341063,-0.07323913,-0.01539917,12.89044204,77.64337434,7.5
152282858704,-0.5204376,-1.1590226,10.304438,0.013824463,-0.059306335,-0.003063965,12.89044204,77.64337434,7.5
152282858725,-0.1966919,-1.3383621,8.928083,-0.01989441,-0.05368805,0.019784546,12.89044204,77.64337434,7.5
152282858747,-0.5644684,-1.226857,10.168164,-0.004992676,-0.01020813,0.057154845,12.89044204,77.64337434,7.5
152282858768,-0.56027985,-1.2391831,9.216063,-0.01598053,0.054785155,0.060942076,12.89041733,77.64331116,7.96
152282858790,0.017344665,-2.130748,8.707466,0.0071060183,0.094610594,0.026376342,12.89041733,77.64331116,7.96
152282858811,-0.29682922,-2.0760741,10.080589,0.0016067505,0.13443756,0.0063446043,12.89041733,77.64331116,7.96
152282858832,-0.068554685,-2.153839,10.827627,0.024575805,0.039639283,-0.11802979,12.89041733,77.64331116,7.96
152282858853,-0.12681885,-2.1912887,8.9535675,0.016998291,-0.07861328,-0.121809386,12.89041733,77.64331116,7.96
152282858874,-0.7085144,-1.7903687,10.356601,-0.014517212,-0.09571686,-0.03983612,12.89039187,77.64323169,7.2
152282858896,-0.77527463,-1.9080979,9.573908,-0.0022979737,-0.065661624,0.010740662,12.89039187,77.64323169,7.2
152282858917,-0.6994232,-1.8443267,9.764377,0.006617737,-0.026808167,0.01978302,12.89039187,77.64323169,7.2
152282858938,-0.14392701,-2.410588,10.136103,0.0011199951,-0.004586792,0.019050598,12.89039187,77.64323169,7.2
152282858960,0.013877869,-2.7339783,9.797277,-0.0088973995,0.02081604,0.025398254,12.89039187,77.64323169,7.2
152282858981,-0.54879457,-3.0127425,9.921344,-0.004255676,0.05087738,0.0052490234,12.89037799,77.64317339,7.03
152282859002,-0.20805664,-3.1753356,9.8665495,0.005757141,0.01593933,-0.043255616,12.89037799,77.64317339,7.03
152282859023,-0.5470001,-3.3637695,9.456899,0.0033126832,-0.0051895143,-0.06097107,12.89037799,77.64317339,7.03
152282859044,-0.3603607,-3.301677,9.6098,0.004171753,-0.0070281983,-0.019676208,12.89037799,77.64317339,7.03
152282859066,-0.053956605,-3.508058,9.593409,0.006983948,-0.041596986,-0.09469147,12.89037799,77.64317339,7.03
152282859087,-0.7106689,-2.7831528,9.863559,-0.0012069702,-0.07690277,-0.0475296,12.89036098,77.64311438,5.72
152282859108,-0.6390045,-2.2515838,9.101565,-0.0484787,-0.051487733,0.037483215,12.89036098,77.64311438,5.72
152282859130,-0.38237458,-2.0106292,10.524455,0.059883118,-0.00763855,0.07425384,12.89036098,77.64311438,5.72
152282859151,-0.7306503,-3.2406585,9.232933,0.027386475,-0.04184265,0.071566775,12.89036098,77.64311438,5.72
152282859172,-0.51673126,-2.4061615,6.3921676,-0.29489288,-0.008003235,0.077316284,12.89035155,77.64305048,5.39
152282859193,0.943367,-3.616214,17.774353,0.30496368,0.124917604,0.04677429,12.89035155,77.64305048,5.39
152282859214,-1.6371734,-1.2730439,5.1251707,0.16288452,-0.068847656,-0.15688172,12.89035155,77.64305048,5.39
152282859236,-1.1310883,-5.1087327,15.524142,0.038145445,0.07983704,-0.0013549805,12.89035155,77.64305048,5.39
152282859257,-1.2447479,-0.3908066,5.5908155,-0.1520752,0.028767396,0.23088226,12.89035155,77.64305048,5.39
152282859278,0.2849838,-0.912442,10.539172,0.11437225,0.089726254,0.090264894,12.89033727,77.64304695,2.81
152282859300,0.08877258,-1.0032486,10.365094,-0.07962799,0.08288269,-0.17654267,12.89033727,77.64304695,2.81
152282859321,-0.6851837,2.9907227E-4,8.995323,0.11094818,0.021800231,-0.28747863,12.89033727,77.64304695,2.81
152282859342,-0.2928818,-0.30143434,11.010439,0.027627563,-0.10096741,-0.33989105,12.89033727,77.64304695,2.81
152282859363,-0.54604185,0.24017945,9.488005,-0.005471802,-0.18184204,-0.25937805,12.89033727,77.64304695,2.81
152282859384,-0.8288757,0.036071777,10.422762,0.025306702,-0.18759003,0.015499878,12.89033235,77.64303039,2.68
152282859405,-0.9442093,0.17545319,9.849922,-0.024534607,-0.119047545,0.1947174,12.89033235,77.64303039,2.68
152282859427,-0.7941788,0.09278107,9.783038,0.013218689,4.2266847E-4,0.27633208,12.89033235,77.64303039,2.68
152282859448,-0.38440856,-0.06861267,9.949821,-0.033084106,0.13968964,0.28170624,12.89033235,77.64303039,2.68
152282859469,0.059820555,-0.038464356,9.767726,0.01260376,0.17377166,0.10516815,12.89032635,77.6430028,2.93
152282859491,0.098220825,-0.46115723,9.833888,-1.00708006E-4,0.14457703,-0.05144348,12.89032635,77.6430028,2.93
152282859512,-0.068553165,0.19770661,10.141484,-0.008657837,0.07139893,-0.13977203,12.89032635,77.6430028,2.93
152282859533,-0.07597504,-0.061315916,9.979132,0.04338684,-0.08020172,-0.23127899,12.89032635,77.6430028,2.93
152282859555,-0.81703186,-0.36795655,9.601191,0.011135864,-0.1916153,-0.10397796,12.89032635,77.6430028,2.93
152282859575,-0.83964384,-0.0661026,9.921346,-0.015859986,-0.1306549,0.055570982,12.89029712,77.64295355,4.43
152282859597,-0.5330032,-0.14398804,10.046491,0.02433319,-0.04172058,0.09527435,12.89029712,77.64295355,4.43
152282859618,-0.8189453,-0.43423462,9.892393,0.0017333984,0.032180786,0.092825316,12.89029712,77.64295355,4.43
152282859640,-0.41671294,-0.41377717,9.378894,0.014070129,0.075431824,0.06777801,12.89029712,77.64295355,4.43
152282859661,-0.14955291,-0.8127823,9.425074,9.96399E-4,0.054537963,-0.020777892,12.89029712,77.64295355,4.43
152282859682,-0.48000184,-0.12951355,9.8068495,-0.005838013,-0.01007843,-0.04166565,12.89028682,77.64290771,4.71
152282859703,-0.3014984,-0.40121612,9.934267,0.011013794,-0.028031921,-0.02285614,12.89028682,77.64290771,4.71
152282859724,-0.56434786,-0.38267213,9.669861,-0.022087097,-0.021562194,-0.0012283325,12.89028682,77.64290771,4.71
152282859745,-0.4706711,-0.37262267,9.854466,-0.0023025512,0.013365174,0.020141602,12.89028682,77.64290771,4.71
152282859767,-0.32877654,-0.5228912,10.024595,-0.010484314,0.0403656,0.0029266358,12.8902745,77.64284855,5.6
152282859788,-0.21535492,-0.7469818,9.992769,-0.012315368,0.004699707,-0.032502748,12.8902745,77.64284855,5.6
152282859810,-0.42676085,-0.8679352,9.691396,-0.009387207,-0.030238342,-0.041668702,12.8902745,77.64284855,5.6
152282859831,-0.6050247,-0.87164766,9.905312,0.0067398073,-0.031210328,-0.002697754,12.8902745,77.64284855,5.6
152282859852,-0.41730958,-0.7626526,9.839749,-0.0035202026,-0.014355469,3.5705566E-4,12.8902745,77.64284855,5.6
152282859908,-0.39457855,-1.0464401,9.714247,0.020541381,-0.0010437012,-0.00892334,12.89023779,77.64279015,6.39
152282859930,-0.33583528,-0.7252029,9.850637,-0.030885315,-0.03646698,-0.010879517,12.89023779,77.64279015,6.39
152282859951,-0.44219512,-1.1212158,9.164136,0.015171814,-0.056137085,0.01990509,12.89023779,77.64279015,6.39
152282859972,-0.7761154,-0.82629853,9.850162,-0.039437868,-0.008615112,0.041273497,12.89023779,77.64279015,6.39
152282859994,-0.45080718,-1.0757523,10.076161,0.03202667,0.060037233,0.03174591,12.89023779,77.64279015,6.39
152282860015,-0.40043944,-0.6969711,10.070776,0.0016082764,0.058935545,-7.4005127E-4,12.89020814,77.64270661,7.37
152282860036,-0.5854065,-1.4775085,9.2057705,-0.015983582,0.031085204,-0.0132019045,12.89020814,77.64270661,7.37
152282860057,-0.5132629,-1.2793823,10.264238,-0.014151001,5.447388E-4,-0.05009613,12.89020814,77.64270661,7.37
152282860079,-0.26393127,-1.5562332,8.787389,-0.01304779,-0.015699768,-0.04313202,12.89020814,77.64270661,7.37
152282860100,-0.8402405,-2.014937,10.632254,-0.015614319,-0.066517636,-0.0554718,12.89020814,77.64270661,7.37
152282860121,-1.0449479,-2.4538987,8.93897,-0.010362243,-0.036468506,0.03846588,12.89018761,77.64265213,7.29
152282860142,-0.938945,-2.379004,9.56709,-0.0025421144,0.06932068,0.029916381,12.89018761,77.64265213,7.29
152282860163,-0.46253204,-2.617209,10.415701,0.029219056,0.033769228,-0.031526186,12.89018761,77.64265213,7.29
152282860185,-0.28235474,-2.6854064,9.241426,-0.025022889,-0.008737182,-0.05669403,12.89018761,77.64265213,7.29
152282860206,-0.46767884,-2.367639,9.664236,0.0319046,-0.03414612,-0.04411163,12.89017351,77.64261772,6.14
152282860227,-0.56662446,-2.4851227,9.722623,-0.024775695,-0.025471497,-0.019064331,12.89017351,77.64261772,6.14
152282860248,-0.23916474,-2.3745804,9.86954,0.008573914,-0.044042967,-0.026152039,12.89017351,77.64261772,6.14
152282860270,-0.88067627,-2.4003005,9.737935,0.006497192,-0.048440553,-0.0030609132,12.89017351,77.64261772,6.14
152282860291,-0.97232515,-2.051787,9.773109,-0.0038894652,0.0021331788,0.041273497,12.89017351,77.64261772,6.14
152282860312,-0.591626,-2.118187,9.546628,0.01089325,0.037680052,0.026618958,12.89016426,77.64257395,5.93
152282860334,-0.3212387,-1.9219742,10.059293,-0.024531554,0.07091217,0.004888916,12.89016426,77.64257395,5.93
152282860355,0.021533202,-1.7410752,9.625114,0.013334656,0.03132782,-0.07856293,12.89016426,77.64257395,5.93
152282860376,-0.31118774,-1.6283737,9.952812,-0.015737915,-0.092904665,-0.12987366,12.89016426,77.64257395,5.93
152282860397,-0.44853514,-1.7044709,9.3360615,0.036668397,-0.13762054,-0.03128357,12.89016426,77.64257395,5.93
152282860419,-0.8295929,-1.8565292,8.895784,-0.002786255,-0.04831543,0.092581175,12.8901503,77.64252426,5.68
152282860440,-0.14799805,-0.9695114,10.58727,0.009793091,0.033525087,0.07132874,12.8901503,77.64252426,5.68
152282860461,-0.23126984,-1.1327026,9.521627,-2.2125244E-4,-0.019490052,-0.028839111,12.8901503,77.64252426,5.68
152282860482,-0.62644196,-0.7981842,10.03405,-0.008039856,-0.06114044,0.007933045,12.8901503,77.64252426,5.68
152282860504,-0.8624924,-0.83910215,10.282542,0.00234375,-0.035002135,0.07437744,12.89013044,77.64245491,5.94
152282860525,-0.8222946,-1.2789017,9.206491,-0.015003967,0.035357665,0.09624939,12.89013044,77.64245491,5.94
152282860546,-0.48239288,-1.3478149,9.599513,0.0089355465,0.08996735,0.07193451,12.89013044,77.64245491,5.94
152282860567,-0.30077973,-1.5486939,9.3372555,-0.0025466918,0.10621796,0.019540405,12.89013044,77.64245491,5.94
152282860588,-0.3809387,-0.97178805,9.8830595,-0.004988098,0.113549806,-0.0166214,12.89013044,77.64245491,5.94
152282860610,-0.31585234,-1.4306107,9.408565,0.0085723875,0.09326782,-0.07343292,12.89011512,77.64238327,6.29
152282860631,-0.5088333,-0.9189026,9.958316,0.014924621,0.043789674,-0.13549347,12.89011512,77.64238327,6.29
152282860652,-0.12167816,-0.8855225,10.237556,0.033618163,-0.06847229,-0.17141113,12.89011512,77.64238327,6.29
152282860674,-0.6539612,-0.8278564,9.561704,0.0071044923,-0.12027588,-0.09725495,12.89011512,77.64238327,6.29
152282860695,-0.5766724,-0.74470365,10.028424,0.0035598755,-0.089486696,-0.021757508,12.89011512,77.64238327,6.29
152282860716,-0.6543182,-0.8069199,9.661008,0.0044189454,-0.052589417,-0.0064849854,12.8900617,77.64225544,7.5
152282860737,-0.61399996,-0.867218,9.993251,-0.0012008667,-0.056253053,-0.003918457,12.8900617,77.64225544,7.5
152282860759,-0.30365142,-1.1908493,9.507385,-0.012316895,-0.036827087,0.012333679,12.8900617,77.64225544,7.5
152282860780,-0.6309891,-1.4586045,10.302524,-0.0016860962,-0.029255677,0.011845398,12.8900617,77.64225544,7.5
152282860801,-0.21583252,-1.6387818,9.292631,-0.0022994995,-0.040496826,0.013919068,12.8900617,77.64225544,7.5
152282860822,-0.52965087,-2.0994034,10.030935,-0.0066970824,-0.02229004,0.034188844,12.89004135,77.64217135,7.34
152282860844,-0.29970247,-2.1422317,9.369679,-0.021966552,-0.04208374,0.011227417,12.89004135,77.64217135,7.34
152282860865,-0.747879,-1.939682,10.137179,0.019447327,-0.07457886,0.023440551,12.89004135,77.64217135,7.34
152282860886,-1.0205399,-2.1294312,9.753607,0.034111023,-0.027183533,0.10003662,12.89004135,77.64217135,7.34
152282860907,-0.8098526,-1.7681153,9.498775,-0.0071868896,0.066877745,0.13460846,12.8900164,77.64210082,7.05
152282860929,0.066877745,-1.4300079,9.20302,0.042172242,0.058573913,0.035414122,12.8900164,77.64210082,7.05
152282860950,0.31166536,-2.2798202,7.6675444,0.012974548,0.08154297,-0.028970337,12.8900164,77.64210082,7.05
152282860971,-0.23461762,-1.1102111,7.271533,-0.198378,0.037805177,-0.012963867,12.8900164,77.64210082,7.05
152282860992,-0.4973526,-0.9098129,12.086131,0.026049804,0.006163025,0.01904602,12.8900164,77.64210082,7.05
152282861013,0.0716629,-2.445404,9.790102,0.07186584,0.027178954,-0.043382265,12.89000662,77.64208503,6.36
152282861035,-0.02596588,-0.8795441,9.436442,-0.022332763,-0.0031219483,-0.05229645,12.89000662,77.64208503,6.36
152282861056,-0.1886734,-0.8469986,9.945993,0.043145753,-0.063827515,-0.06255798,12.89000662,77.64208503,6.36
152282861077,-0.42843324,-0.87044984,9.705633,-0.05532074,-0.07507019,-0.01967926,12.89000662,77.64208503,6.36
152282861099,-0.82815856,-0.80308837,9.726331,0.038020324,-0.040133666,0.03089447,12.89000662,77.64208503,6.36
152282861120,-0.29407805,-0.73154604,9.983081,-0.024412537,-0.018754577,0.03614502,12.88998594,77.64204349,6.04
152282861141,-0.6888962,-0.58917236,9.732671,-0.007548523,-0.0153335575,0.032600403,12.88998594,77.64204349,6.04
152282861162,-0.6117279,-0.8339554,9.534185,-0.019032288,0.008485412,0.034436036,12.88998594,77.64204349,6.04
152282861183,-0.3235138,-0.97358096,9.3983965,0.011019898,0.02815094,0.030155946,12.88998594,77.64204349,6.04
152282861205,-0.76797485,-0.82366943,9.996481,-0.0071884156,0.0430542,0.019779969,12.88997125,77.64200261,6.03
152282861226,-0.13651276,-1.0190445,9.672491,-0.009631348,0.04342041,-0.0074646,12.88997125,77.64200261,6.03
152282861247,-0.45654908,-0.99427795,9.745234,-0.019770812,0.01556549,-0.023464967,12.88997125,77.64200261,6.03
152282861268,-0.64462584,-1.0241852,9.707787,0.0077209473,0.0331604,-0.020651245,12.88997125,77.64200261,6.03
152282861290,-0.5560913,-0.9095688,9.87648,0.010527039,0.04537506,-0.02395172,12.88997125,77.64200261,6.03
152282861304,-0.34887695,-0.99344176,9.4965,0.0066223145,0.019599915,-0.052661132,12.88993332,77.64195433,6.25
152282861325,-0.46970978,-0.924527,10.057976,0.0050338744,-0.0055633546,-0.07086487,12.88993332,77.64195433,6.25
152282861346,-0.64977264,-1.0240707,9.54352,-0.0030334473,-0.02180481,-0.04716339,12.88993332,77.64195433,6.25
152282861368,-0.2650055,-0.9845871,9.725975,-1.05285646E-4,-0.0070281983,-0.05339508,12.88993332,77.64195433,6.25
152282861389,-0.49196625,-0.7302292,9.939171,-0.005227661,-0.042938232,-0.058039855,12.88993332,77.64195433,6.25
152282861410,-0.4100113,-0.9668808,9.537539,-0.009991455,-0.038542174,-0.03286743,12.88990619,77.64190681,6.05
152282861431,-0.40977326,-1.0532608,9.63696,-0.005722046,-0.039273072,-0.028349305,12.88990619,77.64190681,6.05
152282861453,-0.30448914,-1.0710876,9.747267,0.037895203,-0.049534608,-0.031161498,12.88990619,77.64190681,6.05
152282861474,-0.34672242,-0.99571383,9.72262,-0.033692934,-0.06151123,-0.01222229,12.88990619,77.64190681,6.05
152282861495,-0.2982666,-1.288594,9.224434,0.011381531,-0.038542174,0.016358947,12.88990619,77.64190681,6.05
152282861516,-0.35712892,-0.9926041,9.669141,0.0024597168,0.011413574,0.051293947,12.88987792,77.6418425,6.38
152282861538,-0.17288208,-0.77593076,9.723819,-0.016226197,0.044400025,0.010380554,12.88987792,77.6418425,6.38
152282861559,-0.31130677,-1.253659,9.312014,-0.018670654,0.012637329,-0.01662445,12.88987792,77.6418425,6.38
152282861580,-0.23701172,-0.5921631,9.710657,0.009793091,-0.02192688,-0.027008057,12.88987792,77.6418425,6.38
152282861601,-0.37579346,-0.7265228,9.898256,0.0049057007,-0.05894165,-0.0298172,12.88987792,77.6418425,6.38
152282861623,-0.39996338,-0.8103897,9.929125,0.0027053833,-0.087776184,-0.0011077881,12.88984171,77.64172426,8.2
152282861644,-0.41922456,-0.8089539,9.938334,9.96399E-4,-0.08007507,0.029673766,12.88984171,77.64172426,8.2
152282861665,-0.17455749,-0.33158416,10.166372,-0.009629821,-0.05527954,0.04469757,12.88984171,77.64172426,8.2
152282861686,-0.32303315,-0.59383696,9.287488,-0.052754212,-0.033166505,0.05629883,12.88984171,77.64172426,8.2
152282861708,-0.03804779,-0.791365,9.649402,-0.029904176,-0.0051925657,0.056303404,12.88980726,77.64164044,9.17
152282861729,-0.5179275,-1.0331573,9.900172,0.0018600464,-0.036587525,0.049464416,12.88980726,77.64164044,9.17
152282861750,-0.7694122,-0.7575089,10.098654,-0.0033981323,0.0016448975,0.084150694,12.88980726,77.64164044,9.17
152282861771,-0.6579086,-0.79663086,9.631694,0.022016907,0.09741974,0.11640473,12.88980726,77.64164044,9.17
152282861793,-0.07513733,-0.52911377,10.235286,0.002104187,0.181958,0.069006346,12.88980726,77.64164044,9.17
152282861814,-0.27205962,-1.0777862,10.088483,0.0045425417,0.15667267,-0.015524292,12.88977642,77.64156081,9.27
152282861835,-0.124665834,-0.8253418,9.804098,0.007600403,0.079338074,-0.0713562,12.88977642,77.64156081,9.27
152282861856,-0.3272232,-0.5676376,10.049959,0.016638184,0.0018936157,-0.07306366,12.88977642,77.64156081,9.27
152282861878,-0.5761963,-0.5063812,10.137421,-0.007923889,-0.032800294,-0.043865968,12.88977642,77.64156081,9.27
152282861899,-0.6337387,-1.0899887,9.918714,0.00783844,0.0065322877,-0.03336029,12.88974419,77.64148134,9.92
152282861920,-0.45834655,-1.2964904,9.913449,0.017492676,0.007868958,-0.04117737,12.88974419,77.64148134,9.92
152282861941,-0.4051071,-0.97417754,10.213867,0.054385375,-0.027055359,-0.06463776,12.88974419,77.64148134,9.92
152282861963,-0.48454744,-1.0899918,9.594365,-0.06997681,-0.06614838,-0.060972594,12.88974419,77.64148134,9.92
152282861984,-0.81834716,-0.780838,9.7598295,0.044487,-0.053567506,-0.0077041625,12.88974419,77.64148134,9.92
152282862005,-0.38010255,-1.1432327,9.64665,-0.015370178,0.015203858,0.0057327272,12.88970598,77.6413863,10.01
152282862026,-0.40546417,-1.2084335,9.003939,-0.052874755,0.06724854,0.0026809692,12.88970598,77.6413863,10.01
152282862048,-0.33523712,-1.5917618,9.827907,-0.011947632,0.059916686,-0.04716339,12.88970598,77.6413863,10.01
152282862069,-0.23473664,-1.512323,9.841304,-0.03907013,-0.008978272,-0.08271637,12.88970598,77.6413863,10.01
152282862090,-0.46887666,-1.9782044,10.207048,0.069042966,-0.10658874,-0.08943939,12.88970598,77.6413863,10.01
152282862112,-0.65348357,-1.7737366,9.872531,-0.013659668,-0.11672821,-0.011369323,12.88966855,77.64128581,10.13
152282862133,-0.4503296,-1.5436691,10.310419,0.05194702,-0.073114015,-6.1035157E-6,12.88966855,77.64128581,10.13
152282862154,-0.60143584,-1.2211182,10.447649,0.008328247,-0.0622406,0.010498047,12.88966855,77.64128581,10.13
152282862175,-0.7389038,-1.0777848,9.6695,0.037771605,-0.016186524,0.04371948,12.88966855,77.64128581,10.13
152282862196,-0.39649048,-0.93541414,9.1746645,-0.08463745,0.055760194,0.049703978,12.88963909,77.64119314,9.93
152282862218,-0.41515502,-1.3265228,9.867267,0.04143524,0.07897186,0.009396362,12.88963909,77.64119314,9.93
152282862239,-0.14943238,-1.3648056,9.960709,-0.015490723,0.012391662,-0.03128357,12.88963909,77.64119314,9.93
152282862260,-0.38560486,-1.4357529,9.763062,0.041929625,-0.049172975,-0.04850769,12.88963909,77.64119314,9.93
152282862281,-0.6062225,-1.6707275,9.955803,-0.026731873,-0.07348175,-0.012225342,12.88963909,77.64119314,9.93
152282862303,-0.20841523,-1.5906891,9.518275,-0.013902282,-0.043063354,0.0056167603,12.8896082,77.64110763,10.11
152282862324,-0.26010132,-1.5897324,10.051277,0.02250061,-0.06407623,-0.0041625975,12.8896082,77.64110763,10.11
152282862345,-0.38404998,-1.6868805,9.334386,-0.028686523,-0.06309815,0.016729737,12.8896082,77.64110763,10.11
152282862366,-0.42377013,-1.471405,9.70049,0.023970032,-0.022782898,0.024780273,12.8896082,77.64110763,10.11
152282862388,-0.46791688,-1.7951539,10.635483,0.11828156,0.05857849,0.04493866,12.8896082,77.64110763,10.11
152282862409,-0.25663146,-1.3703079,9.67967,-0.04725342,0.088502504,0.008905029,12.8895743,77.64102942,9.75
152282862430,0.091523744,-1.7234924,10.024834,0.042654417,0.05674286,-0.027374268,12.8895743,77.64102942,9.75
152282862451,-0.31286317,-1.364328,9.837835,-0.09770813,0.032792665,-0.020166015,12.8895743,77.64102942,9.75
152282862473,-0.64977264,-1.5977463,8.166449,-0.074864194,0.0027435303,-0.049980164,12.8895743,77.64102942,9.75
152282862494,-0.08710022,-2.0204377,10.0609665,0.056225587,-0.027792359,-0.042280577,12.8895743,77.64102942,9.75
152282862515,-0.4256851,-1.5046647,10.452551,0.09042816,-0.06113739,-0.028475951,12.88953812,77.64094692,9.46
152282862536,-0.679924,-1.0158112,9.621048,0.008938598,-0.022901917,0.026741028,12.88953812,77.64094692,9.46
152282862558,-0.42113954,-1.2981675,9.970995,0.040086366,0.023022462,0.018190002,12.88953812,77.64094692,9.46
152282862579,-0.30257264,-1.2914673,9.798352,0.017860413,0.056617737,0.011843872,12.88953812,77.64094692,9.46
152282862600,-0.09906463,-1.1032715,9.571994,0.006375122,0.063337706,-0.021017456,12.88950687,77.64086726,9.34
152282862621,-0.15026703,-1.1404785,10.009882,0.0024612427,0.025709534,-0.05302887,12.88950687,77.64086726,9.34
152282862643,-0.27876434,-1.0106674,9.49267,1.4038086E-4,-0.036590576,-0.07050018,12.88950687,77.64086726,9.34
152282862664,-0.23150787,-0.9978653,9.407491,-0.028195191,-0.08166504,-0.05571747,12.88950687,77.64086726,9.34
152282862685,-0.53862303,-1.0202392,10.037756,0.023599243,-0.08679505,-0.02395172,12.88950687,77.64086726,9.34
152282862706,-0.24287415,-1.0395019,9.688166,-0.033326723,-0.07189331,9.643555E-4,12.88947293,77.64076392,9.59
152282862728,-0.5169693,-1.3182663,9.605852,-0.0048660277,-0.054177858,0.021736145,12.88947293,77.64076392,9.59
152282862749,-0.40893555,-1.5086167,9.584796,-0.032470703,-0.033291627,0.023200989,12.88947293,77.64076392,9.59
152282862770,-0.416951,-1.3645675,10.1715145,0.0017272949,-0.023028564,0.03711853,12.88947293,77.64076392,9.59
152282862792,-0.40546417,-1.5434281,9.71317,-0.022335816,0.012643432,0.03931732,12.88947293,77.64076392,9.59
152282862813,-0.3546173,-1.8473175,9.548662,-0.009022522,0.03999939,0.037484743,12.88944286,77.64067531,9.68
152282862834,-0.38680267,-1.734259,10.19018,-0.0031539917,0.053193666,0.024420166,12.88944286,77.64067531,9.68
152282862855,-0.25579223,-1.543071,9.239871,-0.017692566,0.047331236,-0.002937317,12.88944286,77.64067531,9.68
152282862876,-0.45379943,-2.0369492,9.825872,-0.01585846,0.015324402,-0.017355347,12.88944286,77.64067531,9.68
152282862897,-0.45583647,-2.317267,9.617933,-0.010240173,0.007997131,-0.006967163,12.88940986,77.64059713,9.47
152282862919,-0.39912263,-2.30746,9.603338,-0.024653625,0.012271118,-0.021389771,12.88940986,77.64059713,9.47
152282862940,-0.28259277,-2.8537414,10.314127,-0.037117004,-0.0032440186,-0.031648256,12.88940986,77.64059713,9.47
152282862961,-0.49878693,-2.6379075,9.929004,-0.0031555176,-0.014480591,-0.035928346,12.88940986,77.64059713,9.47
152282862983,-0.41898194,-3.3830307,9.154924,-0.063258365,0.009461975,-0.002330017,12.88940986,77.64059713,9.47
152282863004,0.10947113,-3.073639,8.734148,0.07368927,0.04293518,-0.013449097,12.88938064,77.64051277,8.9
152282863025,0.24251099,-3.699962,8.497737,-0.06777954,-0.027180482,-0.08149719,12.88938064,77.64051277,8.9
152282863047,-0.88773954,-2.7207017,9.489441,0.047909547,-0.07580414,-0.04313202,12.88938064,77.64051277,8.9
152282863068,-0.18759766,-2.7363725,10.290199,0.0016113281,-0.054177858,-0.006730652,12.88938064,77.64051277,8.9
152282863089,-0.13746949,-2.6474793,9.270857,0.0047866823,-0.07995758,-0.021266174,12.88938064,77.64051277,8.9
152282863110,-0.49806824,-2.4766312,9.852072,0.02494812,-0.10267945,-0.008927917,12.88935569,77.64043445,8.21
152282863131,-0.9285385,-2.3658433,9.574385,1.6784668E-5,-0.07726745,0.053974915,12.88935569,77.64043445,8.21
152282863153,-0.27194518,-2.4251862,9.703718,0.042411804,-0.06382904,0.06595306,12.88935569,77.64043445,8.21
152282863174,-0.47043,-2.1827912,10.043978,-0.012681579,-0.044284057,0.08769836,12.88935569,77.64043445,8.21
152282863195,-0.0017944336,-1.8900299,9.919194,0.029093932,-0.066029355,0.089653015,12.88935569,77.64043445,8.21
152282863216,-0.8264847,-3.0852447,10.944635,-0.04627838,-0.046733093,0.062168885,12.88934025,77.64037552,6.87
152282863238,0.049171448,-3.1876588,10.702601,0.007234192,0.06981506,0.087574765,12.88934025,77.64037552,6.87
152282863259,-0.5357529,-1.5918823,9.387985,-0.02575531,0.14128113,0.16942902,12.88934025,77.64037552,6.87
152282863280,-0.44506836,-2.2244263,10.244497,0.007229614,0.17573395,0.10296631,12.88934025,77.64037552,6.87
152282863301,-0.019024659,-2.3609376,9.606331,0.03581543,0.18293762,0.013787841,12.88931688,77.64032353,6.22
152282863323,-0.10193481,-2.4601226,9.860329,-0.0463974,0.14579773,-0.094322205,12.88931688,77.64032353,6.22
152282863344,0.32374725,-2.67081,9.4435,-0.052505493,0.068595886,-0.2067215,12.88931688,77.64032353,6.22
152282863365,-0.055395506,-1.9625336,9.816542,0.0951889,-0.12393799,-0.2855255,12.88931688,77.64032353,6.22
152282863386,-0.673938,-2.2105484,9.678235,-0.010728454,-0.1932083,-0.15381928,12.88931688,77.64032353,6.22
152282863408,-0.61770785,-2.0562134,9.50607,0.029093932,-0.13285522,-0.005505371,12.88929188,77.64028279,5.37
152282863429,-0.15852508,-2.0310884,10.148784,0.04558716,-0.10854187,0.047994994,12.88929188,77.64028279,5.37
152282863450,-0.42915496,-1.9350173,9.378055,0.0013671875,-0.17378235,0.03101654,12.88929188,77.64028279,5.37
152282863471,-0.60406953,-1.9874191,10.146749,0.022868346,-0.20823821,0.09295197,12.88929188,77.64028279,5.37
152282863493,-0.62716067,-2.1570694,9.333789,0.0117553715,-0.1919876,0.21976776,12.88929188,77.64028279,5.37
152282863514,-0.67716825,-2.0185256,10.407568,0.034109496,-0.124305725,0.34914398,12.88927341,77.64024384,5.05
152282863535,-0.40761718,-2.3520844,9.890715,0.085905455,0.008485412,0.42696685,12.88927341,77.64024384,5.05
152282863557,-0.41168672,-2.0123048,9.931636,0.07454224,0.07653503,0.4019211,12.88927341,77.64024384,5.05
152282863578,0.06412506,-2.044728,10.3087435,0.12731934,0.10841827,0.3011322,12.88927341,77.64024384,5.05
152282863599,0.25172424,-2.2629516,10.400749,0.010774231,0.047576904,0.19129792,12.88924535,77.64019375,4.78
152282863620,-0.11390076,-1.2259018,9.296458,0.06831665,-0.04074707,0.14120941,12.88924535,77.64019375,4.78
152282863642,-0.1954956,-1.7374893,9.93307,-0.090867616,-0.0466095,0.12874909,12.88924535,77.64019375,4.78
152282863663,-0.43537444,-1.6014541,9.352213,-0.07376556,-0.08411713,0.16979523,12.88924535,77.64019375,4.78
152282863684,-0.3762726,-1.641896,9.75672,0.16092071,-0.11062012,0.22330475,12.88924535,77.64019375,4.78
152282863705,-0.3723236,-2.1218948,9.751574,-0.03625946,-0.0542984,0.29380494,12.8892138,77.64016049,4.25
152282863726,-0.5003418,-1.4898345,9.824437,-0.01035614,0.00690155,0.33289337,12.8892138,77.64016049,4.25
152282863748,-0.18927307,-1.6485946,9.597359,0.06024475,-0.010079956,0.316156,12.8892138,77.64016049,4.25
152282863769,-0.097746275,-1.4430511,10.027107,0.007595825,0.018994141,0.27865297,12.8892138,77.64016049,4.25
152282863790,-0.32638246,-1.4203202,10.285055,0.10691986,0.028393555,0.23124695,12.8892138,77.64016049,4.25
152282863811,-0.1852066,-1.3018738,9.601666,0.0821167,-0.028404236,0.20925446,12.88917987,77.64014904,4.23
152282863833,-0.445784,-0.93242186,10.532112,-0.0510437,-0.06578827,0.17749481,12.88917987,77.64014904,4.23
152282863854,-0.47880706,-1.1166703,9.727048,0.0504776,-0.063583374,0.22305755,12.88917987,77.64014904,4.23
152282863875,-0.30688018,-1.117389,10.826071,0.038990784,-0.07531433,0.25128478,12.88917987,77.64014904,4.23
152282863897,-0.542453,-0.98985136,9.076082,0.061592102,-0.047096252,0.28964385,12.88917987,77.64014904,4.23
152282863918,0.017347718,-1.1930008,10.535463,0.049742125,-0.036712646,0.30736238,12.88914339,77.64014145,3.96
152282863939,-0.113780215,-1.1539962,9.135066,0.003199768,-0.0092254635,0.30882874,12.88914339,77.64014145,3.96
152282863960,-0.4047455,-1.1452637,10.388064,0.040093996,0.0490448,0.3228775,12.88914339,77.64014145,3.96
152282863981,0.17515106,-0.9681946,9.318593,-0.011212158,0.0826416,0.26276702,12.88914339,77.64014145,3.96
152282864003,-0.44996947,-0.58211213,10.46595,0.030445863,0.040982056,0.16185455,12.88910413,77.64015818,3.82
152282864024,-0.21380004,-0.6060425,7.6907578,0.06953736,0.038905334,0.14206085,12.88910413,77.64015818,3.82
152282864045,-0.08458557,-1.3932831,7.462004,-0.043711852,0.00738678,0.11823883,12.88910413,77.64015818,3.82
152282864066,-0.28965455,-1.1420349,8.160467,0.025431823,-0.0016555786,0.099179074,12.88910413,77.64015818,3.82
152282864088,-0.6939209,0.018127441,7.418335,-0.0059646606,-0.017660523,0.122392274,12.88910413,77.64015818,3.82
152282864109,-0.51386106,-0.8943771,11.6957445,-0.0018127442,-1.8463135E-4,0.11934052,12.88906856,77.64018173,4.32
152282864130,-0.20076141,-0.6805786,10.6563015,0.050845336,0.047337342,0.13949737,12.88906856,77.64018173,4.32
152282864151,-0.6995438,-0.7424332,7.912692,0.0013687133,0.06370087,0.116163634,12.88906856,77.64018173,4.32
152282864173,-0.33104858,-0.2367096,11.364458,-0.019158935,0.097299196,0.06729279,12.88906856,77.64018173,4.32
152282864194,-0.28690034,-0.9169876,8.556841,0.013699341,0.10352936,0.018922424,12.88906856,77.64018173,4.32
152282864215,0.043548584,-0.85178375,10.688248,-0.012438965,0.06418915,-0.04924164,12.88903465,77.64020764,4.69
152282864237,-0.5510696,-0.38757628,9.878992,0.0072265626,0.006289673,-0.10874176,12.88903465,77.64020764,4.69
152282864258,-0.11079101,-0.86087954,9.217021,-0.005844116,-0.038424682,-0.11448059,12.88903465,77.64020764,4.69
152282864279,-0.34588164,-0.6938583,9.704555,0.0043014525,-0.11893158,-0.081739806,12.88903465,77.64020764,4.69
152282864300,-0.4825119,-0.8924637,11.045614,-0.017079163,-0.12015076,-0.008927917,12.88898115,77.6402372,5.2
152282864321,-0.5034515,-0.70558625,10.057019,0.025065612,-0.0808136,0.06363068,12.88898115,77.6402372,5.2
152282864343,-0.5038101,-1.8147736,11.152693,-0.039801024,-0.040008545,0.08500519,12.88898115,77.6402372,5.2
152282864364,-0.2732605,-1.3001983,9.948148,0.04057617,-0.03085022,0.086717226,12.88898115,77.6402372,5.2
152282864385,-0.501416,-1.4006989,9.731712,-0.024287414,-0.050149538,0.09771271,12.88898115,77.6402372,5.2
152282864406,-0.47641143,-1.5872192,9.6433,0.014927673,0.02131195,0.11689301,12.8889346,77.64026575,5.35
152282864428,-0.37675017,-1.4869598,10.005571,-0.015740966,0.04135132,0.1363205,12.8889346,77.64026575,5.35
152282864449,-0.5143402,-1.1568695,9.761505,0.0019729615,0.12319641,0.13766328,12.8889346,77.64026575,5.35
152282864470,0.24286957,-1.247081,9.326731,0.005026245,0.18734284,0.057279967,12.8889346,77.64026575,5.35
152282864492,0.5082321,-1.9512879,9.863559,0.0071075438,0.11464691,-0.101896666,12.8889346,77.64026575,5.35
152282864513,0.22935028,-2.0667405,8.913968,0.007470703,-0.01741333,-0.18252715,12.88888707,77.64029253,5.96
152282864534,-0.7931,-0.4495514,8.610797,0.0071060183,-0.090220645,-0.118759155,12.88888707,77.64029253,5.96
152282864555,-0.5765503,-0.6020935,11.6169,1.4648438E-4,-0.061141968,-0.03286896,12.88888707,77.64029253,5.96
152282864576,-0.43010864,-0.7820328,8.56294,0.0062530516,-0.026078796,-0.0061187744,12.88888707,77.64029253,5.96
152282864598,-0.24394989,-1.120137,9.6734495,0.05169525,-0.027185058,-0.0077056885,12.88885652,77.64032121,5.49
152282864619,-0.6341003,-0.9028717,10.853114,-0.019525146,-0.006907654,-6.210327E-4,12.88885652,77.64032121,5.49
152282864640,-0.4614563,-0.8496307,8.946152,-0.002909851,0.0010391235,7.2631834E-4,12.88885652,77.64032121,5.49
152282864662,-0.21738891,-0.94079745,9.252192,-0.018666077,0.01068573,-0.009899902,12.88885652,77.64032121,5.49
152282864683,-0.15290375,-1.0424912,10.534027,-0.016590882,-0.01789856,-0.032017518,12.88885652,77.64032121,5.49
152282864704,-0.34444886,-0.33134612,8.110698,0.013215637,-0.029753113,-0.04081421,12.88880782,77.64034591,5.73
152282864725,-0.34109956,-1.8087937,10.304916,-0.02795105,-0.05711212,-0.038246155,12.88880782,77.64034591,5.73
152282864746,-0.6004807,-1.7227722,9.614467,0.031411745,-0.11233063,-0.007460022,12.88880782,77.64034591,5.73
152282864768,-0.7478775,-1.8641876,9.342761,-0.012437439,-0.082035825,0.0696167,12.88880782,77.64034591,5.73
152282864789,-0.72371215,-1.9382446,9.511213,0.017613221,0.0589386,0.17297211,12.88880782,77.64034591,5.73
152282864810,-0.02895813,-2.1324248,9.638273,-0.017570496,0.11599274,0.12605743,12.88875849,77.64036931,5.67
152282864831,0.049650572,-2.2738404,9.72286,-0.021598816,0.10634003,-0.008566285,12.88875849,77.64036931,5.67
152282864853,-0.18365173,-2.3925247,9.792493,-0.0066955565,0.040126037,-0.048265077,12.88875849,77.64036931,5.67
152282864874,-0.20434876,-1.9840667,9.512175,0.017492676,0.05783844,-0.058770753,12.88875849,77.64036931,5.67
152282864895,-0.077890016,-1.7498124,9.854945,0.011746216,0.028517151,-0.11924744,12.88871919,77.64039624,5.05
152282864917,-0.21152648,-1.9524841,9.591257,0.0020965575,-0.060287476,-0.16138916,12.88871919,77.64039624,5.05
152282864938,-0.36694184,-1.6822159,9.929604,0.026039124,-0.111839294,-0.1229126,12.88871919,77.64039624,5.05
152282864959,-0.5867218,-1.6531403,9.847287,0.021156311,-0.14018707,-0.033480834,12.88871919,77.64039624,5.05
152282864980,-0.7301712,-1.4960525,9.920385,-0.0029129027,-0.11599579,0.06632233,12.88871919,77.64039624,5.05
152282865001,-0.80805665,-1.3074996,9.837718,0.009915161,-0.0484375,0.16906281,12.88868165,77.64041811,4.33
152282865023,-0.3890747,-1.867775,9.817617,0.013946533,0.04574127,0.19423065,12.88868165,77.64041811,4.33
152282865044,-0.23437652,-1.7973068,9.902084,-0.002670288,0.049038697,0.1291153,12.88868165,77.64041811,4.33
152282865065,-0.1372284,-1.7630905,9.649162,0.004537964,0.042933654,0.056541443,12.88868165,77.64041811,4.33
152282865087,-0.3075989,-1.6514695,9.691037,-0.012684631,0.005555725,0.03479309,12.88868165,77.64041811,4.33
152282865108,-0.4687561,-1.7924042,9.657419,0.006863403,0.0259552,0.037358094,12.88865929,77.64043486,3.09
152282865129,-0.020100404,-1.6981262,9.929364,0.011628723,0.040492248,0.02783661,12.88865929,77.64043486,3.09
152282865150,-0.31381837,-2.196071,9.658017,-0.005844116,0.02180481,-0.004406738,12.88865929,77.64043486,3.09
152282865172,-0.08913422,-2.1346984,9.618176,-0.0033981323,0.021800231,-0.042643737,12.88865929,77.64043486,3.09
152282865193,0.01519165,-2.0775056,9.7839985,-0.0029083253,-0.010205078,-0.08418274,12.88865929,77.64043486,3.09
152282865214,-0.4449463,-2.1861434,9.645094,6.347656E-4,-0.014355469,-0.05962677,12.88863067,77.64045928,3.4
152282865235,0.0108856205,-2.0940201,9.600588,-0.0016891479,-0.02620697,-0.06536865,12.88863067,77.64045928,3.4
152282865256,-0.48670045,-2.2463212,9.5642185,-0.0032806396,-0.055888366,-0.050340272,12.88863067,77.64045928,3.4
152282865210,-0.50249326,-2.202771,9.775026,-0.006085205,-0.003489685,0.07584991,12.88863067,77.64045928,3.4
152282865231,0.012321472,-2.1118455,9.819532,0.007472229,0.031814575,0.07010498,12.88861654,77.64047363,2.73
152282865252,-0.17779084,-1.9695908,9.581205,-9.613037E-4,0.005795288,-0.02835083,12.88861654,77.64047363,2.73
152282865273,0.4316635,-1.765126,10.072812,-0.0019409179,-0.03719635,-0.092488095,12.88861654,77.64047363,2.73
152282865295,-0.3373886,-2.3514848,9.224794,-0.010121155,-0.12894592,-0.23164825,12.88861654,77.64047363,2.73
152282865316,-0.8219345,-1.5893707,10.277878,0.03947754,-0.13994141,-0.05156555,12.88861654,77.64047363,2.73
152282865337,-0.77779233,-1.1620147,10.295105,0.005760193,-0.0470932,0.24223939,12.88860031,77.64048138,1.96
152282865358,-0.6216583,-0.895813,9.296579,0.058422852,0.048432924,0.44322053,12.88860031,77.64048138,1.96
152282865380,-0.3426544,-0.55124664,10.737178,0.0650116,0.11085663,0.54254454,12.88860031,77.64048138,1.96
152282865401,0.07764435,-1.0904678,9.366811,-0.0035263062,0.1317505,0.34108275,12.88860031,77.64048138,1.96
152282865422,0.122392274,-0.5410751,9.464315,0.01712799,0.1861206,0.14279786,12.88860031,77.64048138,1.96
152282865443,0.3802185,0.7269989,10.238635,-0.020132447,0.15826264,-0.19365235,12.88858866,77.64048426,1.35
152282865465,-0.54664004,0.61274415,10.725095,0.030932616,0.121974185,-0.39755708,12.88858866,77.64048426,1.35
152282865486,-0.17252502,0.7103699,10.507349,0.057807922,0.12625122,-0.4326172,12.88858866,77.64048426,1.35
152282865507,-0.6254822,-0.3788437,9.899811,0.07221985,0.121852115,-0.4566864,12.88858866,77.64048426,1.35
152282865529,0.013516235,0.010708618,9.764734,0.10386505,0.05710449,-0.5817917,12.88858866,77.64048426,1.35
152282865550,-0.23796692,-0.10618134,9.854586,0.09372406,-0.09094544,-0.62406313,12.88857211,77.64049444,2.06
152282865571,-0.43298188,-0.14279023,9.62691,0.11217193,-0.24696198,-0.56627655,12.88857211,77.64049444,2.06
152282865608,-0.97016907,0.10008087,9.954008,0.036427308,-0.3870941,-0.30641326,12.88857211,77.64049444,2.06
152282865629,-1.2760956,0.13932343,9.899092,0.0458313,-0.37976378,0.04091339,12.88857211,77.64049444,2.06
152282865650,-0.59593505,-1.023349,9.213908,-0.040045165,-0.31196442,0.21927337,12.88854805,77.64050429,3.02
152282865672,-0.718927,-1.6786255,10.4303,-0.022335816,-0.21641998,0.3495102,12.88854805,77.64050429,3.02
152282865693,-0.90424955,-2.7063415,9.451755,0.17191163,-0.04330902,0.54694366,12.88854805,77.64050429,3.02
152282865715,-0.2531616,-1.793959,10.417498,0.031536866,0.15630646,0.55207366,12.88854805,77.64050429,3.02
152282865735,0.4715042,-1.8726838,9.399351,0.07564087,0.17170104,0.31285706,12.88854805,77.64050429,3.02
152282865757,0.111746214,-1.9403992,10.078794,0.008206177,0.066999815,0.13619843,12.88851234,77.64051842,4.37
152282865778,-0.4561905,-1.7848648,9.759352,0.017367553,0.07848664,0.17419434,12.88851234,77.64051842,4.37
152282865800,0.020819092,-1.5424759,9.671415,0.012969971,0.086790465,0.18237762,12.88851234,77.64051842,4.37
152282865821,-0.23629303,-0.9283554,9.943003,0.0040496825,0.076898195,0.087574765,12.88851234,77.64051842,4.37
152282865842,-0.34025878,-1.0990845,9.972194,-0.0012023926,0.039141845,0.0762146,12.88851234,77.64051842,4.37
152282865863,-0.28271484,-1.4045258,9.790817,0.0077194213,0.13346405,0.0881836,12.88848913,77.64054531,4.09
152282865884,-0.42807618,-0.5366486,10.363541,-0.0064498903,0.18990326,0.046531677,12.88848913,77.64054531,4.09
152282865906,0.31657106,-1.2086761,9.073688,0.0023422241,0.16192321,-0.15809783,12.88848913,77.64054531,4.09
152282865927,0.042114258,-0.71611327,10.417735,0.034713745,0.023025513,-0.3395218,12.88848913,77.64054531,4.09
152282865948,-0.4092911,-1.6805359,8.089159,0.029093932,-0.08557586,-0.28381348,12.88845789,77.64057125,4.17
152282865970,-0.5538208,-1.2839264,7.87883,0.02115326,-0.110011294,-0.14661102,12.88845789,77.64057125,4.17
152282865991,-0.813324,-0.29748687,10.314367,0.0036865235,-0.0907074,-0.043013,12.88845789,77.64057125,4.17
152282866012,-0.7990875,-0.48317108,9.972673,0.0074737547,0.0028656006,0.047502138,12.88845789,77.64057125,4.17
152282866033,-0.3492325,-0.13035126,10.223801,0.01651001,0.047695924,-0.020898437,12.88845789,77.64057125,4.17
152282866054,-0.10540619,-0.35957795,9.7767,-0.0062042237,-0.0058059692,-0.12181244,12.88842428,77.64059652,4.62
152282866075,-0.12215271,-0.4907074,9.619967,0.0073516844,-0.1177063,-0.17263488,12.88842428,77.64059652,4.62
152282866097,-0.72586364,-0.5183441,9.831854,0.0067382813,-0.18245849,-0.058531187,12.88842428,77.64059652,4.62
152282866118,-0.7192825,-0.5213364,10.162663,0.017611694,-0.14373016,0.07889862,12.88842428,77.64059652,4.62
152282866139,-0.86524504,-0.2006958,10.127727,0.02445221,-0.04733429,0.16039124,12.88842428,77.64059652,4.62
152282866161,-0.62201536,-0.7143173,9.697499,2.6397704E-4,0.10072327,0.20327301,12.88837962,77.64062657,5.15
152282866182,-0.16558532,-0.6647873,9.7979965,0.0024627685,0.18514404,0.099429324,12.88837962,77.64062657,5.15
152282866203,0.17778626,-0.67938536,9.7540865,-0.0018127442,0.14384155,-0.065122984,12.88837962,77.64062657,5.15
152282866224,-0.31429902,-0.70450747,9.633133,-0.0088943485,0.05942688,-0.0978653,12.88837962,77.64062657,5.15
152282866246,-0.46887666,-0.71072996,9.451872,-0.04175415,3.02124E-4,-0.10189514,12.88834173,77.64065612,6.01
152282866267,-0.5526215,-0.50925446,9.82192,0.0033187866,-0.04196167,-0.09602966,12.88834173,77.64065612,6.01
152282866288,-0.2580658,-0.60986936,9.894424,-0.017573547,-0.080444336,-0.08809052,12.88834173,77.64065612,6.01
152282866309,-0.6022751,-0.526001,9.898015,-0.005595398,-0.092292786,-0.041423034,12.88834173,77.64065612,6.01
152282866330,-0.3687378,-0.9632904,9.644496,0.015533447,-0.11941528,-0.036291502,12.88834173,77.64065612,6.01
152282866352,-0.5490341,-0.7360916,10.001625,-0.027218629,-0.13236694,0.017703246,12.88829523,77.64068478,6.1
152282866373,-0.7585281,-0.7482956,10.047567,0.07735138,-0.08508758,0.079020694,12.88829523,77.64068478,6.1
152282866394,-0.5416168,-1.2214737,10.071375,-0.0058410643,0.013619995,0.13876343,12.88829523,77.64068478,6.1
152282866416,-0.7290939,-0.71527404,9.621165,8.789062E-4,0.13101654,0.13204345,12.88829523,77.64068478,6.1
152282866437,-0.017707825,-1.0733627,9.856738,-0.011824036,0.16070557,0.028697204,12.88829523,77.64068478,6.1
152282866458,-0.102055356,-0.8174499,9.935222,0.006375122,0.08312683,-0.06280365,12.88822908,77.64072355,7.35
152282866480,-0.20566253,-1.0649841,9.902562,0.008085633,0.008235169,-0.06903534,12.88822908,77.64072355,7.35
152282866501,-0.33116913,-1.0159333,9.618297,-0.03955536,-0.039273072,-0.062315367,12.88822908,77.64072355,7.35
152282866522,-0.4578659,-0.96604156,9.820966,0.022254944,-0.068595886,-0.05266571,12.88822908,77.64072355,7.35
152282866543,-0.26955262,-1.1499329,9.698336,-0.0052261353,-0.08361969,-0.03690491,12.88822908,77.64072355,7.35
152282866564,-0.5818192,-1.7952744,9.475203,-0.009391785,-0.09767151,-0.007096863,12.88817306,77.64076106,7.78
152282866585,-0.56016237,-1.2077163,9.645572,-0.017204285,-0.05173645,0.06363068,12.88817306,77.64076106,7.78
152282866607,-0.6163925,-1.292064,10.277637,0.007595825,0.012997436,0.07059173,12.88817306,77.64076106,7.78
152282866628,-0.45116884,-1.0960907,10.067427,-0.020503234,0.050387572,0.05593109,12.88817306,77.64076106,7.78
152282866649,-0.070826724,-1.4717652,9.035164,0.018222045,0.08105163,0.0313797,12.88810606,77.64080186,7.89
152282866670,-0.20267335,-1.8572464,9.848602,-0.018309021,0.07872925,-0.008195495,12.88810606,77.64080186,7.89
152282866692,-0.54209745,-1.1104476,10.255862,0.019685363,0.031814575,-0.051194765,12.88810606,77.64080186,7.89
152282866713,-0.34074098,-1.0469192,10.049123,0.004423523,-0.020829773,-0.05608215,12.88810606,77.64080186,7.89
152282866734,-0.252446,-1.1696701,9.463476,-0.006576538,-0.052589417,-0.04423218,12.88810606,77.64080186,7.89
152282866756,-0.35450134,-1.4210373,9.407845,-0.011579895,-0.051977538,-0.018328857,12.88804997,77.6408428,7.85
152282866777,-0.53072816,-1.1172669,9.872652,0.02921753,-0.040126037,-0.0013504028,12.88804997,77.6408428,7.85
152282866798,-0.3852478,-1.5692718,9.79991,-0.0037643432,-0.02180481,0.01660614,12.88804997,77.6408428,7.85
152282866819,-0.5154144,-1.3165909,9.4167,-0.016596984,0.009951782,0.03455963,12.88804997,77.6408428,7.85
152282866841,-0.3184845,-1.5055039,9.829102,0.044244386,0.05295105,0.02332611,12.88804997,77.6408428,7.85
152282866862,-0.2987442,-1.2793839,9.905672,-0.037237547,0.06651306,-0.011862183,12.88798833,77.64087771,7.88
152282866883,-0.35390013,-1.2476776,9.638754,0.008328247,0.022895813,-0.056941222,12.88798833,77.64087771,7.88
152282866904,-0.10420837,-1.3035492,9.968124,0.01260376,-0.020706177,-0.053884886,12.88798833,77.64087771,7.88
152282866926,-0.37184602,-0.95240176,9.984157,-0.015861511,-0.05784149,-0.051074218,12.88798833,77.64087771,7.88
152282866947,-0.36371002,-1.3441086,9.856264,0.0042999266,-0.05870056,-0.017721558,12.88792509,77.64091459,8.0
152282866968,-0.6022736,-0.9948746,9.9739895,-0.0068191527,-0.03719635,0.01428833,12.88792509,77.64091459,8.0
152282866989,-0.45595247,-1.3074982,9.9961195,0.0045410157,0.006288147,0.028939819,12.88792509,77.64091459,8.0
152282867011,-0.4579895,-1.2117844,9.80278,-0.0068191527,0.0589386,0.024421692,12.88792509,77.64091459,8.0
152282867032,-0.20818023,-1.4102676,9.909502,-0.0027923584,0.07494354,-0.008930969,12.88792509,77.64091459,8.0
152282867053,-0.014117432,-1.666539,8.966611,0.01871338,0.013005066,-0.072819516,12.88786168,77.64094927,8.18
152282867075,-0.6009598,-1.6840088,10.959116,-0.0143966675,-0.05870056,-0.072697446,12.88786168,77.64094927,8.18
152282867096,-0.037571717,-1.664505,9.3424,-0.0082824705,-0.115507506,-0.061460875,12.88786168,77.64094927,8.18
152282867117,-0.3942154,-2.1955934,8.692752,0.023236085,-0.11233215,-0.0023284913,12.88786168,77.64094927,8.18
152282867138,-0.6849472,-0.99894255,9.782801,-0.013539123,-0.059677124,0.054104615,12.88786168,77.64094927,8.18
152282867160,-0.7464447,-1.0296905,11.562223,5.096436E-4,0.008609009,0.07963409,12.88780071,77.6409882,8.18
152282867180,-0.6751404,-2.0535781,10.318674,0.016271973,0.063215636,0.0721817,12.88780071,77.6409882,8.18
152282867202,-0.19992065,-1.7472976,9.400548,0.0023391724,0.082640074,0.021609496,12.88780071,77.6409882,8.18
152282867223,0.164505,-1.5526428,9.207089,-0.031126404,0.025828552,-0.037269592,12.88780071,77.6409882,8.18
152282867244,-0.044506837,-1.6180847,9.396721,0.007965088,-0.03805542,-0.044599913,12.88780071,77.6409882,8.18
152282867302,-0.39266205,-1.0883163,9.6803875,0.029341126,-0.076776125,-0.03018341,12.88773576,77.64101978,7.98
152282867323,-0.8208618,-1.5120834,10.386511,-0.014152527,-0.07470246,0.022583008,12.88773576,77.64101978,7.98
152282867344,-0.21954194,-1.354036,9.226709,-0.013902282,-0.040986635,0.054222107,12.88773576,77.64101978,7.98
152282867365,-0.6628143,-1.6734817,10.56059,-0.0052322387,0.0032302856,0.055078126,12.88773576,77.64101978,7.98
152282867386,-0.033621214,-1.4563324,8.292073,0.02946167,0.032427978,0.0504364,12.8876735,77.64105469,7.79
152282867408,-0.80769956,-1.1313858,11.469742,0.018840026,0.039875794,0.050190736,12.8876735,77.64105469,7.79
152282867429,-0.014718628,-1.7751739,9.246332,0.014317322,0.047331236,0.004145813,12.8876735,77.64105469,7.79
152282867450,-0.13016815,-1.6445282,9.767248,-0.015127564,0.027664185,0.014651489,12.8876735,77.64105469,7.79
152282867471,-0.0491745,-2.035872,9.568403,-0.012805176,0.031204224,-0.012715149,12.8876735,77.64105469,7.79
152282867493,-0.043431092,-2.0373092,9.395521,0.014926148,0.027661134,-0.024682617,12.88761173,77.64109307,7.64
152282867514,-0.15756683,-1.9149154,9.848366,0.0063705444,0.016426086,-0.027003478,12.88761173,77.64109307,7.64
152282867536,-0.5414978,-1.0016922,9.37961,0.025796508,0.0015197754,-0.02065735,12.88761173,77.64109307,7.64
152282867557,-0.4851471,-0.8200806,10.023161,0.0050338744,0.011296081,-0.023095703,12.88761173,77.64109307,7.64
152282867578,-0.16594239,-1.0527833,9.658854,0.0067398073,0.020454407,-0.033605956,12.88761173,77.64109307,7.64
152282867599,-0.37088776,-1.0472794,9.95712,0.013827515,5.7983398E-5,-0.038002014,12.88755149,77.64113203,7.65
152282867620,-0.37064973,-0.9014374,9.206012,-0.0077941893,-0.018997192,-0.056695558,12.88755149,77.64113203,7.65
152282867642,-0.55190885,-0.9798004,10.678434,0.038874816,-0.0676178,-0.04423218,12.88755149,77.64113203,7.65
152282867663,-0.2914505,-0.92452544,9.396479,0.005644226,-0.08521271,-0.025787354,12.88755149,77.64113203,7.65
152282867684,-0.5461639,-1.1182235,9.727168,-0.009013367,-0.08142395,0.010131836,12.88748612,77.6411736,8.06
152282867706,-0.562912,-0.43363953,10.534027,0.04168396,-0.024617005,0.04078827,12.88748612,77.6411736,8.06
152282867726,-0.4467392,-1.1455017,10.152614,-0.017695617,0.02008667,0.03957062,12.88748612,77.6411736,8.06
152282867748,-0.40151826,-0.69481814,9.736856,0.0052749636,0.027050782,0.03224182,12.88748612,77.6411736,8.06
152282867769,-0.22659913,-1.3149154,9.760309,-0.013661194,0.022653198,0.003289795,12.88748612,77.6411736,8.06
152282867790,-0.37986144,-0.9812347,9.357715,0.006375122,0.014343262,-1.3122559E-4,12.88741346,77.64120901,8.38
152282867811,-0.38931274,-0.9187851,9.948382,0.038261414,-5.5084226E-4,-0.0048950193,12.88741346,77.64120901,8.38
152282867833,-0.26560363,-0.76002043,9.688524,-0.043344118,-1.8768311E-4,-0.009535218,12.88741346,77.64120901,8.38
152282867854,-0.2644104,-1.1480179,9.8164215,0.029464722,-0.027670288,-0.017721558,12.88741346,77.64120901,8.38
152282867876,-0.4773697,-1.0003815,9.829939,-0.03564606,-0.04880066,-0.0066055297,12.88741346,77.64120901,8.38
152282867897,-0.31645203,-1.0077988,9.55572,0.039241027,-0.04025116,-4.974365E-4,12.88734208,77.64125401,8.92
152282867918,-0.36777955,-1.0801818,9.6239195,-0.008650208,-0.03927765,0.017826844,12.88734208,77.64125401,8.92
152282867939,-0.40343475,-1.2379853,9.698816,-0.010237122,-0.018872071,0.031871032,12.88734208,77.64125401,8.92
152282867961,-0.3458832,-1.7739792,10.0990095,-0.0071853637,-0.014476013,0.025883485,12.88734208,77.64125401,8.92
152282867981,-0.5834915,-1.3299881,9.614825,-0.023191834,0.01752472,0.051779173,12.88727014,77.64130078,9.2
152282868003,-0.52510834,-1.3199418,9.811514,0.020542908,0.07518768,0.04445343,12.88727014,77.64130078,9.2
152282868024,-0.26261443,-1.7377274,9.903399,0.017854309,0.10206451,0.01904602,12.88727014,77.64130078,9.2
152282868046,-0.30018005,-1.4371872,9.649043,-0.016717529,0.11782227,-0.0050170897,12.88727014,77.64130078,9.2
152282868066,-0.31489867,-1.1277955,10.269859,0.034350585,0.09583435,-0.06145935,12.88727014,77.64130078,9.2
152282868088,-0.27314147,-1.1397598,9.480703,-0.017814636,0.0033538819,-0.110328674,12.88719787,77.64135094,9.07
152282868109,-0.45643157,-1.0972869,9.772273,0.0319046,-0.06822662,-0.09371338,12.88719787,77.64135094,9.07
152282868131,-0.5686539,-1.0691726,9.803499,-0.0037643432,-0.068963625,-0.054130554,12.88719787,77.64135094,9.07
152282868151,-0.43118897,-0.80285186,9.671657,-0.0011947632,-0.078611754,-0.043624878,12.88719787,77.64135094,9.07
152282868173,-0.37280273,-1.2949371,9.648326,-0.023803711,-0.11782684,-0.048509218,12.88719787,77.64135094,9.07
152282868194,-0.4504486,-0.7151535,10.135984,0.034106445,-0.109889224,0.00964508,12.88714463,77.64139701,9.07
152282868216,-0.46528473,-1.4699692,9.793208,-0.025752258,-0.07531281,0.025888061,12.88714463,77.64139701,9.07
152282868237,-0.5009384,-0.76133883,9.577855,0.038873293,-0.03011322,0.05519867,12.88714463,77.64139701,9.07
152282868258,-0.61615294,-1.2405014,10.310656,0.0055160522,0.0051895143,0.056784056,12.88714463,77.64139701,9.07
152282868279,-0.2798416,-0.81385803,9.549265,-0.018545533,0.071279906,0.06888123,12.88714463,77.64139701,9.07
152282868300,-0.34791717,-1.1191819,10.47983,0.011628723,0.10487213,0.038220216,12.88706476,77.64144359,9.49
152282868322,-0.09116821,-1.2722031,9.183757,-0.04822998,0.10450745,-0.002696228,12.88706476,77.64144359,9.49
152282868343,-0.25662994,-0.7626526,9.83963,0.055236816,0.05392761,-0.045944214,12.88706476,77.64144359,9.49
152282868364,-0.19393921,-1.173619,9.778017,-0.029174805,-0.019485474,-0.06695862,12.88706476,77.64144359,9.49
152282868385,-0.35066834,-1.0018173,9.147387,0.006617737,-0.05246582,-0.04019928,12.88698488,77.64149262,9.79
152282868407,-0.52917325,-1.0756333,9.762584,0.002958679,-0.03841553,-0.002078247,12.88698488,77.64149262,9.79
152282868428,-0.43441924,-0.8544159,9.68326,-0.012927246,0.0018936157,-6.1035157E-6,12.88698488,77.64149262,9.79
152282868449,-0.33140716,-1.0929825,9.973511,0.004788208,0.0025024414,-0.025173951,12.88698488,77.64149262,9.79
152282868470,-0.38991243,-1.263591,9.937261,0.018096924,-0.027302552,-0.029203797,12.88698488,77.64149262,9.79
152282868492,-0.36502838,-0.89509124,9.33714,-0.015126037,-0.04134979,-0.026885986,12.88690581,77.64154495,10.21
152282868513,-0.31645355,-0.83348083,9.482984,-9.536743E-4,-0.064437866,-0.016986083,12.88690581,77.64154495,10.21
152282868534,-0.44638214,-1.1432282,9.945755,-0.018667603,-0.05784302,0.004878235,12.88690581,77.64154495,10.21
152282868556,-0.43633118,-1.0984863,9.749782,-0.01756897,-0.024739075,0.036138915,12.88690581,77.64154495,10.21
152282868577,-0.17060852,-1.709851,9.530718,0.03276062,0.028152466,0.023931885,12.88690581,77.64154495,10.21
152282868598,-0.17085114,-1.2007782,9.803381,-0.021598816,0.036946107,0.017826844,12.88682143,77.64159294,10.4
152282868619,-0.10253296,-1.4907882,9.665077,0.06110382,0.0154449465,-0.00977478,12.88682143,77.64159294,10.4
152282868641,-0.29551545,-1.2559311,9.382242,-0.045053102,-0.0017807006,-9.872436E-4,12.88682143,77.64159294,10.4
152282868662,-0.31465608,-1.4642289,9.12968,0.03715668,-1.8463135E-4,-0.0039154054,12.88682143,77.64159294,10.4
152282868683,-0.41097108,-1.2860839,9.451996,-0.029907227,-0.0037277222,-0.004161072,12.88673158,77.64164815,10.71
152282868704,-0.22229461,-1.3102509,9.507985,-0.0051086424,-0.004949951,-0.0035507202,12.88673158,77.64164815,10.71
152282868726,-0.36610565,-1.3206574,9.784355,-0.0036392212,-0.0038482666,-0.008926392,12.88673158,77.64164815,10.71
152282868747,-0.38716125,-1.4883941,9.695584,0.01101532,-0.0023849488,0.0032928467,12.88673158,77.64164815,10.71
152282868768,-0.2879776,-1.2501923,9.161028,-0.012562561,-7.019043E-5,-0.0031860352,12.88673158,77.64164815,10.71
152282868789,-0.31394044,-1.1702713,9.847049,0.023478698,-0.016308594,-0.010760498,12.88665254,77.64169445,10.64
152282868811,-0.33355865,-1.2221954,9.495184,-0.014146423,-0.023152161,-0.0052627563,12.88665254,77.64169445,10.64
152282868832,-0.49579468,-1.2742355,9.882584,0.01712799,-0.019485474,0.004142761,12.88665254,77.64169445,10.64
152282868853,-0.44721985,-1.5055039,8.934668,-0.022331238,0.010934448,0.01599579,12.88665254,77.64169445,10.64
152282868874,-0.42257386,-1.4608765,9.45714,0.022010803,0.03364868,0.012693787,12.88665254,77.64169445,10.64
152282868895,-0.25770873,-1.8879974,10.199989,0.016023254,0.003114319,-0.030064393,12.88657049,77.64174406,10.42
152282868917,-0.3125046,-1.4312073,9.447566,-0.013905334,-0.06028595,-0.039100647,12.88657049,77.64174406,10.42
152282868938,-0.30101776,-1.483609,9.600947,-0.015007019,-0.06529541,-2.5177002E-4,12.88657049,77.64174406,10.42
152282868959,-0.47796783,-1.623587,9.926252,0.016514588,-0.007762146,0.037001036,12.88657049,77.64174406,10.42
152282868981,-0.5235504,-2.038983,10.220926,0.0279953,0.046720885,0.03163147,12.88648784,77.64180264,10.53
152282869002,-0.33044893,-1.263472,9.313568,-0.033815004,0.07212982,0.0294281,12.88648784,77.64180264,10.53
152282869023,-0.08937683,-1.2811768,10.251552,0.025550842,0.06394653,-0.02224121,12.88648784,77.64180264,10.53
152282869044,-0.21834564,-1.3126419,9.638873,-0.010728454,-0.01398468,-0.054249573,12.88648784,77.64180264,10.53
152282869066,-0.46038055,-1.4848068,9.419932,0.007965088,-0.05332184,-0.029937744,12.88648784,77.64180264,10.53
152282869087,-0.58923495,-1.4062011,9.698816,-0.019039918,-0.040376283,-0.008311463,12.88641379,77.6418491,10.27
152282869108,-0.41886443,-1.3656418,9.699892,0.01333313,-0.029258728,-0.008436585,12.88641379,77.6418491,10.27
152282869129,-0.5194839,-1.5998993,10.014664,-0.026489258,-0.010322571,0.004878235,12.88641379,77.6418491,10.27
152282869151,-0.3361923,-1.6917877,9.621407,-4.699707E-4,0.02827301,0.0072021484,12.88641379,77.6418491,10.27
152282869172,-0.18747711,-1.8512665,9.492671,-0.022576904,0.01703186,-0.021018982,12.88641379,77.6418491,10.27
152282869193,-0.4704315,-1.2828522,10.277758,0.051086426,-0.022540282,-0.026641846,12.88633897,77.64189919,10.19
152282869214,-0.27876434,-1.7664382,10.009763,-0.03564911,-0.036709595,-0.019436646,12.88633897,77.64189919,10.19
152282869235,-0.46624297,-1.5264419,9.505834,0.024578858,-0.044285584,-0.0068511963,12.88633897,77.64189919,10.19
152282869257,-0.3626358,-1.831166,9.6371975,-0.024041748,-0.035368346,0.0012145996,12.88633897,77.64189919,10.19
152282869278,-0.45380098,-1.6603196,9.463719,-0.0064498903,-0.024620056,0.018077087,12.88633897,77.64189919,10.19
152282869299,-0.42723846,-1.7159516,9.97363,0.003442383,0.012269592,0.032356262,12.8862613,77.64193756,9.87
152282869321,-0.28881225,-1.4857635,9.8018265,-0.0021774292,0.019474793,0.013920593,12.8862613,77.64193756,9.87
152282869342,-0.43250427,-1.7389206,9.88605,0.023841858,0.0056762695,0.0024383545,12.8862613,77.64193756,9.87
152282869363,-0.3207611,-1.7863007,9.588745,-0.034062196,-0.012400818,0.0013381958,12.8862613,77.64193756,9.87
152282869384,-0.3996048,-1.6335189,10.006172,0.025064087,-0.013621521,0.011962891,12.88619074,77.64198496,9.55
152282869406,-0.40821686,-1.4065597,9.180649,-0.011096192,0.002253723,0.008666992,12.88619074,77.64198496,9.55
152282869427,-0.36023864,-1.134497,9.79955,0.0320282,0.017156983,0.021368409,12.88619074,77.64198496,9.55
152282869448,-0.3523468,-1.0609162,10.027226,0.02237854,0.044526674,0.018432617,12.88619074,77.64198496,9.55
152282869469,-0.55788577,-0.9363693,9.710419,-0.0021759034,0.06052246,8.4533694E-4,12.88619074,77.64198496,9.55
152282869491,-0.40462494,-1.1920456,9.8913145,-0.008898926,0.059545897,-0.015275573,12.88611649,77.64203048,9.45
152282869512,-0.26010132,-1.2382263,9.938215,0.027626038,0.04476471,-0.04411011,12.88611649,77.64203048,9.45
152282869533,-0.114378355,-0.78430635,9.916323,-0.01769104,0.013005066,-0.058526613,12.88611649,77.64203048,9.45
152282869554,-0.09499512,-1.228775,9.657298,0.017240906,-0.034996033,-0.07770844,12.88611649,77.64203048,9.45
152282869575,-0.43322143,-1.1869004,9.863561,0.005030823,-0.10304413,-0.068791196,12.88611649,77.64203048,9.45
152282869597,-0.527977,-1.1848633,9.879591,-0.005723572,-0.14006042,-0.034335326,12.88604673,77.64208143,9.5
152282869618,-0.7186844,-0.93505555,10.015863,-0.009262085,-0.086186215,0.037243653,12.88604673,77.64208143,9.5
152282869639,-0.7610382,-1.3208954,9.659212,-0.021717835,0.030836487,0.070961,12.88604673,77.64208143,9.5
152282869661,-0.34947664,-1.428096,9.882822,0.005882263,0.07921906,0.044448853,12.88604673,77.64208143,9.5
152282869682,-0.3615555,-1.2103485,10.24689,0.038500976,0.04171295,-0.023097228,12.88597151,77.64212837,9.75
152282869703,-0.2407196,-1.0941788,9.689122,-0.031987,-0.007637024,-0.027618408,12.88597151,77.64212837,9.75
152282869724,-0.47449797,-1.5459442,9.583,0.046441652,-0.026445007,-0.011982727,12.88597151,77.64212837,9.75
152282869746,-0.24143524,-1.6244262,9.608603,-0.041506957,0.0015197754,0.007443237,12.88597151,77.64212837,9.75
152282869767,-0.36969605,-1.3810761,9.729444,0.027262878,-0.015205383,-0.01613617,12.88597151,77.64212837,9.75
152282869788,-0.2806778,-1.048117,10.110021,-0.036625672,-0.02144165,-0.008563233,12.88589998,77.64217422,9.65
152282869809,-0.5021332,-0.94450533,9.849322,0.066358946,-0.0045806887,0.008416748,12.88589998,77.64217422,9.65
152282869830,-0.21511841,-1.232962,9.899332,-0.023065185,0.026438903,0.0056152344,12.88589998,77.64217422,9.65
152282869852,-0.39386138,-1.097409,9.52605,0.015533447,0.017642211,-0.01967926,12.88589998,77.64217422,9.65
152282869873,-0.30030212,-1.1011184,9.517675,-0.008404541,-0.015943909,-0.026031494,12.88589998,77.64217422,9.65
152282869894,-0.44877625,-0.8009384,9.425555,0.009425354,-0.022904968,-0.015275573,12.88581959,77.64222083,9.59
152282869916,-0.24083862,-0.71371764,10.563936,0.002709961,-0.022781372,-0.021757508,12.88581959,77.64222083,9.59
152282869937,-0.24454956,-1.1056626,9.920268,0.017857362,-0.04550781,-0.021511842,12.88581959,77.64222083,9.59
152282869958,-0.532164,-1.0998017,9.630496,-0.013905334,-0.065783694,-0.010147095,12.88581959,77.64222083,9.59
152282869980,-0.50117797,-1.0950149,10.003418,-0.012562561,-0.057717897,0.022103881,12.88581959,77.64222083,9.59
152282870000,-0.454039,-1.3768905,9.822882,0.045951843,-0.010446167,0.030648803,12.88573771,77.64226757,9.81
152282870022,-0.47784728,-1.0521835,9.782923,-0.029177856,0.01605835,0.036265563,12.88573771,77.64226757,9.81
152282870043,-0.5059662,-1.062114,9.722504,0.015415954,0.0403656,0.03663025,12.88573771,77.64226757,9.81
152282870064,-0.486821,-1.1216965,10.195566,-4.6844484E-4,0.07885285,0.02051239,12.88573771,77.64226757,9.81
152282870085,-0.12694244,-1.4310868,9.7274065,0.0029525757,0.06223755,-0.018943787,12.88565176,77.64231333,10.07
152282870107,-0.12694092,-1.4341965,9.688045,-0.017321777,0.012147522,-0.042767335,12.88565176,77.64231333,10.07
152282870128,-0.38213348,-1.6521851,9.531317,0.014559937,-0.042333983,-0.047288515,12.88565176,77.64231333,10.07
152282870149,-0.13040924,-1.212622,9.455103,-0.014144897,-0.068963625,-0.028352356,12.88565176,77.64231333,10.07
152282870170,-0.5315689,-1.5126832,9.895503,0.04473419,-0.072380066,-0.01539917,12.88565176,77.64231333,10.07
152282870192,-0.5411377,-1.2426544,9.623079,-0.07559357,-0.025471497,0.044329833,12.88557434,77.64236109,9.97
152282870213,-0.45978087,-1.2158524,9.981763,0.092745975,0.049528502,0.03443756,12.88557434,77.64236109,9.97
152282870234,-0.13842468,-1.1882172,10.024473,-0.06594696,0.065409854,0.012696838,12.88557434,77.64236109,9.97
152282870212,-0.087220766,-1.1648865,10.062998,0.035079956,0.01752472,-0.03702545,12.88557434,77.64236109,9.97
152282870233,-0.35892335,-1.3750947,9.786989,0.006617737,-0.06590424,-0.050827026,12.88557434,77.64236109,9.97
152282870254,-0.72837675,-0.8205551,10.056421,0.06391601,-0.07690124,0.00683136,12.8854971,77.64241145,9.98
152282870275,-0.36203614,-1.5677185,9.941325,-0.077423096,-0.023884583,0.03480072,12.8854971,77.64241145,9.98
152282870297,-0.3241089,-0.94749606,9.3443165,6.347656E-4,-0.006417847,0.01770935,12.8854971,77.64241145,9.98
152282870318,-0.27661285,-1.7494507,9.958913,0.05316925,0.0044540404,0.01807251,12.8854971,77.64241145,9.98
152282870339,-0.34157714,-1.2383438,9.626909,-0.0047424315,0.040855408,0.03785553,12.88542619,77.64245761,9.89
152282870360,-0.2776886,-2.2079194,9.318596,0.036058046,0.06578064,0.007196045,12.88542619,77.64245761,9.89
152282870381,-0.4555954,-1.2507889,9.4624,-0.041513063,0.053196717,-0.015892029,12.88542619,77.64245761,9.89
152282870403,-0.21786804,-1.2407395,10.548506,0.14662628,0.026808167,-0.03604736,12.88542619,77.64245761,9.89
152282870424,-0.19800873,-2.0697312,8.609241,-0.24638519,0.009828186,-0.039344788,12.88542619,77.64245761,9.89
152282870445,-0.36909026,-0.7331009,9.809362,0.10972748,-0.024609376,-0.054127503,12.88535496,77.64250629,9.64
152282870467,-0.2563904,-1.9390824,10.417618,0.018711854,-0.059552003,-0.06109314,12.88535496,77.64250629,9.64
152282870488,-0.5644684,-1.3953125,8.971039,-0.027952576,-0.04355011,-2.5634764E-4,12.88535496,77.64250629,9.64
152282870509,-0.5560959,-1.5558732,10.189102,0.06354828,0.01177826,0.017097473,12.88535496,77.64250629,9.64
152282870530,-0.2727829,-1.2537781,9.05634,-0.10015259,0.052340697,9.689331E-4,12.88535496,77.64250629,9.64
152282870552,-0.30855408,-1.0440476,10.157275,0.124882504,-0.0127685545,-0.0515625,12.88527628,77.64254614,9.34
152282870573,-0.36251372,-1.2293717,9.781723,-0.09172058,-0.07518921,-0.045207214,12.88527628,77.64254614,9.34
152282870594,-0.48000184,-0.8309662,9.616262,0.06782226,-0.06786041,0.0019485473,12.88527628,77.64254614,9.34
152282870615,-0.4054657,-1.0676178,10.120308,-0.048716735,-0.05393524,0.013308716,12.88527628,77.64254614,9.34
152282870637,-0.45009154,-0.9338608,9.405574,0.027629089,-0.019477844,0.028082276,12.88520016,77.64259051,9.29
152282870658,-0.49423677,-1.021437,10.425392,0.005393982,0.004449463,0.029302979,12.88520016,77.64259051,9.29
152282870679,-0.322316,-0.8422119,9.452474,0.0020980835,0.018986512,0.02967224,12.88520016,77.64259051,9.29
152282870700,-0.41013184,-0.95934296,9.911055,-2.2125244E-4,0.019963074,0.017216492,12.88520016,77.64259051,9.29
152282870710,-0.28175658,-1.3150345,9.478914,-0.015737915,0.022288512,0.0072036744,12.88520016,77.64259051,9.29
152282870730,-0.38500518,-0.88516694,9.719152,-0.048719786,0.023997497,0.0113571165,12.88512695,77.64263639,9.36
152282870752,-0.32638398,-1.3323822,9.712092,-0.013417053,0.020335387,-0.0034271241,12.88512695,77.64263639,9.36
152282870773,-0.5949768,-1.1852233,9.852791,0.0022216798,0.0615036,0.01734314,12.88512695,77.64263639,9.36
152282870795,0.0037094117,-1.7173889,9.758397,0.017610168,0.062971495,-0.042034913,12.88512695,77.64263639,9.36
152282870816,-0.13591309,-1.6893921,9.66579,-0.02893219,-0.027919006,-0.07770844,12.88512695,77.64263639,9.36
152282870837,-0.33690947,-1.3388427,9.852911,0.026774596,-0.11892853,-0.079415895,12.88505066,77.64267686,9.46
152282870858,-0.5327652,-1.7362931,9.579529,-0.017326355,-0.13944855,-0.009414673,12.88505066,77.64267686,9.46
152282870880,-0.7517044,-1.4880387,10.038115,0.027626038,-0.077999875,0.05898895,12.88505066,77.64267686,9.46
152282870901,-0.5600418,-1.814296,9.934507,-0.013298035,0.024487305,0.087818906,12.88505066,77.64267686,9.46
152282870922,-0.45451966,-1.4491532,9.5642185,-0.008778381,0.10756226,0.0800003,12.88505066,77.64267686,9.46
152282870943,-0.24825592,-1.237149,9.407127,-0.004136658,0.12295685,0.010253906,12.88497282,77.64272609,9.2
152282870964,-0.3649063,-0.8843277,9.99301,0.03092804,0.09510193,-0.03054657,12.88497282,77.64272609,9.2
152282870986,-0.14763947,-0.883371,9.713049,0.0050323484,0.04537506,-0.06976624,12.88497282,77.64272609,9.2
152282871007,-0.3584442,-0.6247055,9.76342,0.007958984,-0.034269713,-0.08564758,12.88497282,77.64272609,9.2
152282871028,-0.55740964,-0.8624283,10.057857,0.02946167,-0.08593903,-0.06964264,12.88491235,77.64277126,8.86
152282871049,-0.43669128,-0.52049714,9.847171,-0.02917633,-0.07396851,-0.020895386,12.88491235,77.64277126,8.86
152282871071,-0.3373886,-0.81302035,9.590419,0.002581787,-0.052468874,-0.014910889,12.88491235,77.64277126,8.86
152282871092,-0.6093353,-0.96939087,9.376379,0.007229614,-0.03353424,0.012698364,12.88491235,77.64277126,8.86
152282871113,-0.48179778,-0.52372897,9.651796,0.0071075438,0.021429444,0.02320404,12.88491235,77.64277126,8.86
152282871135,-0.23641357,-0.5615341,10.234685,0.072589114,0.019474793,-0.01381073,12.88484344,77.64281863,8.94
152282871156,-0.3014984,-0.6930191,9.936063,-0.05580292,-0.0017807006,-0.02676239,12.88484344,77.64281863,8.94
152282871177,-0.38333282,-0.7828705,9.302084,0.027507018,-0.045625307,-0.024320984,12.88484344,77.64281863,8.94
152282871198,-0.45033264,-0.79710996,10.137777,-0.0074310303,-0.027792359,0.013305664,12.88484344,77.64281863,8.94
152282871220,-0.54879606,-0.6829697,9.653589,-0.010977173,0.016426086,0.03174591,12.88484344,77.64281863,8.94
152282871241,-0.17037049,-0.59934235,10.203702,5.096436E-4,0.050872803,0.0025604249,12.88476837,77.6428614,9.19
152282871262,-0.306044,-0.5106888,9.735903,-0.01304779,0.008485412,-0.031158447,12.88476837,77.6428614,9.19
152282871283,-0.31298217,-0.69852144,9.954366,0.013217163,-0.03035736,-0.034211732,12.88476837,77.6428614,9.19
152282871305,-0.36909485,-0.39643097,10.161585,0.0077178953,-0.04147186,-0.021269226,12.88476837,77.6428614,9.19
152282871325,-0.56721956,-0.8166092,9.925054,0.010404969,-0.021194458,0.015504455,12.88469594,77.64290599,9.35
152282871406,-0.46647948,-0.76097715,9.915126,0.029457092,0.0070114136,0.009156799,12.88469594,77.64290599,9.35
152282871428,-0.100737,-0.820079,10.15225,-0.008775329,-0.0014083863,-0.013449097,12.88469594,77.64290599,9.35
152282871449,-0.18460846,-0.6958908,9.652872,-0.0019348145,-0.061383057,-0.042036436,12.88469594,77.64290599,9.35
152282871470,-0.29432067,-0.5545944,9.80972,0.007835388,-0.13053283,-0.026153564,12.88469594,77.64290599,9.35
152282871491,-0.53503877,-0.70977175,9.959991,-0.009385681,-0.11758423,0.03931885,12.88461916,77.64295355,9.67
152282871513,-0.5383881,-0.77078706,9.857577,0.021765137,-0.03854523,0.09123993,12.88461916,77.64295355,9.67
152282871534,-0.53264314,-0.7271179,9.702403,-0.01976471,0.06443481,0.10529022,12.88461916,77.64295355,9.67
152282871555,-0.4243698,-0.7951935,9.770597,0.01724701,0.12833253,0.07608795,12.88461916,77.64295355,9.67
152282871576,-0.25196686,-1.1501694,9.466472,-0.0056015016,0.15581512,0.026493836,12.88461916,77.64295355,9.67
152282871598,-0.23139039,-1.1161941,9.32266,0.022865295,0.12539673,-0.02040863,12.88461916,77.64295355,9.67
152282871619,-0.19453736,-0.81768644,9.818098,-0.021478271,0.059429932,-0.069885254,12.88454079,77.64300487,9.77
152282871640,-0.20003967,-1.074556,9.735903,0.024821471,-0.03378143,-0.087724306,12.88454079,77.64300487,9.77
152282871661,-0.69726866,-0.5200211,10.286253,-0.0049789427,-0.08019714,-0.038124084,12.88454079,77.64300487,9.77
152282871683,-0.5581268,-0.96077883,9.844897,0.026409913,-0.037319947,-0.023464967,12.88454079,77.64300487,9.77
152282871704,-0.2694336,-0.95826566,10.096382,-0.036380004,-0.03646698,-0.029449463,12.88445875,77.6430496,9.92
152282871725,-0.3238678,-1.0178452,9.985113,0.0023391724,-0.06798248,-0.03702698,12.88445875,77.6430496,9.92
152282871746,-0.3824951,-1.3978287,9.497335,0.01980896,-0.061141968,-0.0055038454,12.88445875,77.6430496,9.92
152282871768,-0.60837555,-1.0178467,9.87361,0.016389465,-0.030474853,0.01941681,12.88445875,77.6430496,9.92
152282871789,-0.5078781,-0.99989927,9.544475,-0.018545533,0.029125977,0.033209227,12.8843823,77.64309878,9.87
152282871810,-0.42520446,-0.79375917,9.782923,-0.010720825,0.06736755,0.020266723,12.8843823,77.64309878,9.87
152282871831,-0.1933426,-0.83982086,10.2001095,0.008692932,0.045988463,-0.021876525,12.8843823,77.64309878,9.87
152282871853,-0.36825562,-1.40979,9.945516,0.008328247,0.02570343,-0.025907898,12.8843823,77.64309878,9.87
152282871874,-0.29312134,-1.042012,9.443617,-0.0066986084,0.028761292,-0.026153564,12.8843823,77.64309878,9.87
152282871895,0.058143616,-1.2275741,9.965853,0.009425354,-0.024249267,-0.07172241,12.8843067,77.6431361,9.78
152282871916,-0.24897614,-1.2533004,9.718077,-0.010848999,-0.11917114,-0.07929535,12.8843067,77.6431361,9.78
152282871938,-0.32135773,-1.0838883,9.679791,0.019075012,-0.18013763,-0.036657713,12.8843067,77.6431361,9.78
152282871959,-0.57906497,-1.0813751,9.696661,-0.02392273,-0.16303101,0.03260193,12.8843067,77.6431361,9.78
152282871980,-0.4873001,-1.0328003,10.061806,0.029582214,-0.10475464,0.0814682,12.8843067,77.6431361,9.78
152282872001,-0.6459457,-1.1593841,10.076523,8.81958E-4,-0.013253784,0.1177475,12.88422679,77.64317968,9.6
152282872023,-0.5892334,-0.9963104,9.835803,-0.010488892,0.07445526,0.1353424,12.88422679,77.64317968,9.6
152282872044,-0.3509079,-1.3516464,10.208006,0.062934875,0.16558686,0.10467682,12.88422679,77.64317968,9.6
152282872065,-0.062216185,-1.2049652,9.584555,-0.046154786,0.18220977,0.039201356,12.88422679,77.64317968,9.6
152282872086,-0.10529022,-1.3400406,9.454145,0.033003233,0.13016205,-0.028962707,12.88415145,77.64322296,9.4
152282872108,-0.23676911,-1.0003799,10.101764,-0.0032730103,0.04928589,-0.07159881,12.88415145,77.64322296,9.4
152282872130,-0.20925598,-1.2840484,9.634207,-0.0027908324,-0.025596619,-0.081007384,12.88415145,77.64322296,9.4
152282872150,-0.43334046,-1.2339188,9.650599,0.0029525757,-0.08032379,-0.065979004,12.88415145,77.64322296,9.4
152282872171,-0.66341096,-1.0453628,9.9319935,-8.346558E-4,-0.06944885,-0.025177002,12.88415145,77.64322296,9.4
152282872193,-0.400441,-1.0127014,9.790339,0.0047836304,-0.03303833,0.008299256,12.88409101,77.64326518,9.16
152282872214,-0.43573457,-1.138327,9.752292,1.4343261E-4,-0.016549682,0.0032943725,12.88409101,77.64326518,9.16
152282872235,-0.37064973,-1.12612,9.496622,0.011260986,0.013371277,0.011108398,12.88409101,77.64326518,9.16
152282872256,-0.3052063,-0.9789642,9.970996,-0.006944275,0.04219971,-0.006114197,12.88409101,77.64326518,9.16
152282872278,-0.20542602,-1.0791016,9.761147,0.0044174194,0.023017883,-0.028964233,12.88409101,77.64326518,9.16
152282872299,-0.39816743,-1.0451279,9.873011,-0.019158935,-0.011669922,-0.034703065,12.88402044,77.64331167,9.22
152282872320,-0.5294113,-1.0441681,9.846571,0.013088989,-0.009468079,-0.019799804,12.88402044,77.64331167,9.22
152282872341,-0.34289247,-1.2805771,9.954608,-0.0043777465,0.009095764,-0.020655822,12.88402044,77.64331167,9.22
152282872363,-0.5328827,-1.2078369,9.75325,0.0040527345,-1.9073486E-4,-0.026638795,12.88402044,77.64331167,9.22
152282872385,-0.42879486,-1.1696717,10.005574,-0.007678223,9.109497E-4,-0.021630859,12.88402044,77.64331167,9.22
152282872405,-0.40641937,-1.2479156,9.649402,0.010281372,0.009339904,-0.027131652,12.88395596,77.64335605,9.17
152282872426,-0.33069,-1.1726608,9.808046,0.0038070679,-0.007885742,-0.045574952,12.88395596,77.64335605,9.17
152282872448,-0.44769898,-1.298645,9.638273,-0.009143067,-0.027790833,-0.03788147,12.88395596,77.64335605,9.17
152282872469,-0.3833313,-1.2798599,9.959152,-0.0021820068,-0.04098053,-0.035069276,12.88395596,77.64335605,9.17
152282872490,-0.38775787,-1.4557327,9.792851,-0.016838074,-0.05307617,-0.02297821,12.88387908,77.6433998,8.93
152282872511,-0.29743043,-1.1555542,9.986193,-0.023313904,-0.06969605,-0.016131591,12.88387908,77.6433998,8.93
152282872533,-0.6204605,-1.4412568,9.82659,0.005760193,-0.073358156,0.0076828003,12.88387908,77.6433998,8.93
152282872554,-0.36215362,-1.2069976,9.570679,-0.021844482,-0.038786314,0.035290528,12.88387908,77.6433998,8.93
152282872575,-0.36347198,-1.5467803,9.386908,0.018959045,-0.006298828,0.03870392,12.88387908,77.6433998,8.93
152282872596,-0.425325,-1.9147934,9.982004,-0.013908386,0.012269592,0.044935606,12.88381273,77.6434362,8.6
152282872618,-0.51098937,-1.13031,10.021963,0.0055206297,0.023143005,0.03235779,12.88381273,77.6434362,8.6
152282872639,-0.24395141,-1.9595413,8.8220825,0.0036849976,0.040492248,0.029187012,12.88381273,77.6434362,8.6
152282872660,-0.4054657,-0.47347718,10.708824,0.0022247315,0.017773438,0.010983276,12.88381273,77.6434362,8.6
152282872681,-0.47605592,-1.4912674,10.166608,0.109976195,0.0076278686,-0.005508423,12.88381273,77.6434362,8.6
152282872703,-0.47473907,-0.5573486,9.226709,-0.095141605,0.040734865,0.02759552,12.88375175,77.64347896,8.09
152282872725,-0.37040862,-1.0142593,9.819173,0.040330507,0.08422241,0.0117202755,12.88375175,77.64347896,8.09
152282872745,-0.3031723,-0.89210355,9.705511,-0.04445038,0.10560455,-0.002697754,12.88375175,77.64347896,8.09
152282872767,-0.12550354,-0.945343,9.665433,0.03911438,0.09510193,-0.064021304,12.88375175,77.64347896,8.09
152282872788,-0.28367156,-0.7216171,10.112173,-0.015370178,0.032550048,-0.11949005,12.88368821,77.64350945,8.01
152282872810,-0.26369017,-0.8621918,9.629778,0.011871338,-0.05796356,-0.127919,12.88368821,77.64350945,8.01
152282872830,-0.46229553,-0.78263247,9.969798,0.0040512085,-0.1123291,-0.10275574,12.88368821,77.64350945,8.01
152282872851,-0.4511673,-0.7773682,9.897894,1.4038086E-4,-0.12112732,-0.055229187,12.88368821,77.64350945,8.01
152282872873,-0.6285965,-0.85406035,9.843579,0.0014877319,-0.107565306,-0.011125183,12.88368821,77.64350945,8.01
152282872894,-0.43621367,-0.93026733,9.688164,-0.007797241,-0.077999875,0.02002716,12.88362826,77.64354657,7.97
152282872915,-0.41551667,-0.84640044,9.761507,-0.047254942,-0.049902342,0.018682862,12.88362826,77.64354657,7.97
152282872936,-0.4887329,-0.75786746,9.8450165,0.04082184,-0.048678588,0.026496887,12.88362826,77.64354657,7.97
152282872958,-0.3443283,-0.7049866,10.310657,-0.007069397,-0.051246643,0.040663145,12.88362826,77.64354657,7.97
152282872979,-0.45104828,-0.85752714,9.828384,0.04436798,-0.023760986,0.06240387,12.88362826,77.64354657,7.97
152282873000,-0.42508698,-0.8991623,9.404614,-0.076330565,0.011660767,0.07413788,12.88355479,77.64357772,8.23
152282873021,-0.6129242,-0.57038724,9.84669,0.040216066,0.068589784,0.08183441,12.88355479,77.64357772,8.23
152282873043,-0.30400848,-1.1262405,9.8830595,0.007350159,0.121609494,0.061431885,12.88355479,77.64357772,8.23
152282873001,-0.102293395,-0.80261385,9.569601,-0.0048629763,0.10487366,-0.010879517,12.88355479,77.64357772,8.23
152282873022,-0.20099792,-0.81852263,9.982364,0.025799561,0.019602966,-0.066589355,12.88349438,77.64362083,8.31
152282873043,-0.16343231,-0.92763823,9.635645,-0.027345276,-0.055400085,-0.06109314,12.88349438,77.64362083,8.31
152282873064,-0.4491318,-0.96592253,9.954605,0.032273866,-0.065905765,-0.01980133,12.88349438,77.64362083,8.31
152282873086,-0.38105774,-0.5876175,10.233969,-0.011579895,-0.061264038,-0.016746521,12.88349438,77.64362083,8.31
152282873107,-0.38536376,-0.99894255,9.797879,-0.0060836794,-0.08032379,-0.009048462,12.88349438,77.64362083,8.31
152282873128,-0.43980104,-1.0546967,9.885692,0.015292359,-0.111227416,0.008177185,12.88342723,77.64366527,8.48
152282873149,-0.733641,-1.1438293,9.497698,-0.03222809,-0.07323456,0.08488617,12.88342723,77.64366527,8.48
152282873171,-0.6659256,-1.0462036,9.992892,0.07112427,0.06859283,0.14218445,12.88342723,77.64366527,8.48
152282873192,-0.43166962,-1.6752746,9.840831,-0.07376404,0.18342896,0.09392853,12.88342723,77.64366527,8.48
152282873213,0.20027772,-1.2233902,9.107907,0.042045593,0.17206573,-0.0020858764,12.88342723,77.64366527,8.48
152282873235,-0.19369964,-1.3944778,10.303599,0.036790468,0.073228456,-0.10055389,12.88336198,77.64371116,8.51
152282873256,-0.28498536,-0.5963501,9.530838,-0.010974121,-0.012527466,-0.088214114,12.88336198,77.64371116,8.51
152282873277,-0.33296508,-0.5551956,10.171995,0.02714386,-0.07470246,-0.09139099,12.88336198,77.64371116,8.51
152282873298,-0.41216582,-0.72783506,9.629898,-0.0438324,-0.1251587,-0.06255646,12.88336198,77.64371116,8.51
152282873320,-0.52630156,-0.9177078,9.79285,0.047540285,-0.14116363,-0.021142578,12.88336198,77.64371116,8.51
152282873341,-0.46397096,-0.61776733,9.744158,-0.024169922,-0.11037598,0.03138275,12.88329914,77.64374982,8.26
152282873362,-0.62225497,-0.7893295,10.037158,0.034347534,-0.049902342,0.06815033,12.88329914,77.64374982,8.26
152282873383,-0.47964326,-0.7741394,9.778135,-0.022703553,0.023143005,0.09221802,12.88329914,77.64374982,8.26
152282873405,-0.3621567,-0.79770815,9.571039,0.013951111,0.08007355,0.07193603,12.88329914,77.64374982,8.26
152282873426,-0.25471956,-0.9031113,9.765932,-0.012561035,0.09131317,0.030158997,12.88322827,77.64379703,8.53
152282873447,-0.13196564,-0.9921234,9.894188,0.016877746,0.08581543,0.003781128,12.88322827,77.64379703,8.53
152282873468,-0.35832673,-1.1394012,9.695943,-0.0128036495,0.0575943,-0.03030243,12.88322827,77.64379703,8.53
152282873489,-0.3483963,-1.1762512,9.481786,0.0024627685,0.027539063,-0.039712526,12.88322827,77.64379703,8.53
152282873511,-0.308078,-1.183789,9.968961,-0.008773804,0.013490295,-0.03958893,12.88322827,77.64379703,8.53
152282873532,-0.3606003,-0.98111725,9.653351,0.005026245,-0.0017745972,-0.050706483,12.88315819,77.64384464,8.8
152282873553,-0.59916383,-0.79148406,9.848842,-0.0070632934,-0.020826722,-0.03531494,12.88315819,77.64384464,8.8
152282873575,-0.6217758,-0.71635133,9.669022,-0.020018006,-0.007633972,-0.023466492,12.88315819,77.64384464,8.8
152282873596,-0.58277285,-0.8582474,9.817378,0.012599182,0.03743591,-0.010150147,12.88315819,77.64384464,8.8
152282873617,-0.32087556,-0.6870407,10.145792,-8.31604E-4,0.058573913,-0.035679627,12.88315819,77.64384464,8.8
152282873638,-0.19992217,-0.9117218,9.878636,0.006378174,0.025585938,-0.0852829,12.88309591,77.64388101,8.64
152282873660,-0.14201507,-1.0448853,9.809122,0.0012451172,-0.051976014,-0.10800628,12.88309591,77.64388101,8.64
152282873681,-0.41886443,-0.8315628,9.864037,0.008206177,-0.12369232,-0.08479462,12.88309591,77.64388101,8.64
152282873702,-0.69032747,-0.7417129,9.9828415,-0.0031555176,-0.13786621,-0.0298172,12.88309591,77.64388101,8.64
152282873723,-0.6835083,-0.597905,10.061445,0.0031936646,-0.101579286,0.024668884,12.88303415,77.64391087,8.48
152282873744,-0.48526612,-0.96280974,9.805056,-5.8898923E-4,-0.057476807,0.042248536,12.88303415,77.64391087,8.48
152282873766,-0.39924163,-0.94534457,9.764018,0.0014892578,-0.027423095,0.052998353,12.88303415,77.64391087,8.48
152282873787,-0.46289366,-0.88444674,9.965492,-0.0015686036,0.016052246,0.06716766,12.88303415,77.64391087,8.48
152282873808,-0.4157532,-1.2275772,9.756365,-0.008895874,0.0652893,0.067051694,12.88303415,77.64391087,8.48
152282873829,-0.37555236,-1.730072,9.923022,-0.010362243,0.096321106,0.041030884,12.88297445,77.64395213,8.66
152282873851,-0.14380646,-1.5413955,9.642941,0.003076172,0.105241396,-8.666992E-4,12.88297445,77.64395213,8.66
152282873872,-0.4374115,-1.3632507,10.254544,0.004658508,0.047206115,-0.057914734,12.88297445,77.64395213,8.66
152282873893,-0.10384826,-1.575853,8.999392,3.8909912E-4,-0.034751892,-0.074897766,12.88297445,77.64395213,8.66
152282873915,-0.7140198,-1.4985641,10.71744,0.0052734376,-0.078364566,-0.047166444,12.88297445,77.64395213,8.66
152282873936,-0.42640227,-1.4576477,8.956083,-0.028321838,-0.03279419,0.01159668,12.88290758,77.64399247,8.47
152282873957,-0.8297119,-1.7035096,10.487009,-0.0047439574,0.015570069,0.028326416,12.88290758,77.64399247,8.47
152282873978,0.049053956,-1.5942764,9.172872,-0.0059631346,0.07750855,0.017707825,12.88290758,77.64399247,8.47
152282874000,-0.41635284,-0.8520233,9.599031,0.018222045,0.067121886,-0.038490295,12.88290758,77.64399247,8.47
152282874021,-0.2914459,-0.6437271,9.998515,-0.013417053,0.016912842,-0.073431395,12.88285428,77.64402528,8.01
152282874042,-0.23593445,-0.920221,9.966929,0.027384948,-0.041716002,-0.08747864,12.88285428,77.64402528,8.01
152282874063,-0.37005004,-0.8995193,9.682424,-0.008042907,-0.08862915,-0.06781006,12.88285428,77.64402528,8.01
152282874084,-0.5419785,-0.80285037,10.068265,0.03190918,-0.079589844,-0.016133118,12.88285428,77.64402528,8.01
152282874106,-0.38811952,-0.79746854,9.892992,0.023838807,-0.060653687,-0.0058700563,12.88285428,77.64402528,8.01
152282874127,-0.37818757,-0.7153946,9.697617,0.015658569,-0.089242555,-0.004774475,12.88280143,77.64406437,7.98
152282874148,-0.45176393,-1.031723,9.563739,-0.00730896,-0.08972931,0.034190368,12.88280143,77.64406437,7.98
152282874169,-0.6747772,-0.5236069,9.89682,-0.020013427,-0.011547851,0.081100464,12.88280143,77.64406437,7.98
152282874191,-0.2847473,-0.87248534,9.652275,0.0022201538,0.055880737,0.08097534,12.88280143,77.64406437,7.98
152282874212,-0.5426941,-0.65963745,9.958075,0.011627197,0.06822357,0.043955993,12.88280143,77.64406437,7.98
152282874233,-0.42783815,-0.65078735,10.097097,0.014682007,0.083006285,0.028205872,12.88273765,77.64410833,8.24
152282874255,-0.24933167,-0.939122,9.745592,-0.010725403,0.090092465,-0.0017181396,12.88273765,77.64410833,8.24
152282874276,-0.15302429,-0.82725984,9.628345,-0.02257843,0.07347717,-0.032258607,12.88273765,77.64410833,8.24
152282874297,-0.20303345,-0.79495394,9.593889,0.002217102,0.03438263,-0.06659088,12.88273765,77.64410833,8.24
152282874319,-0.16450806,-0.69637144,9.671295,-0.0043777465,-0.052955627,-0.09994201,12.88273765,77.64410833,8.24
152282874339,-0.45942536,-0.81027067,9.830058,0.043022156,-0.11636047,-0.07208862,12.88267321,77.64414918,8.37
152282874361,-0.557048,-0.75858307,10.022324,-0.016835023,-0.12222443,-0.012225342,12.88267321,77.64414918,8.37
152282874382,-0.6361343,-1.0191619,9.663518,0.016026307,-0.0814209,0.033702087,12.88267321,77.64414918,8.37
152282874403,-0.5718872,-0.82653964,9.91656,0.003315735,0.003479004,0.0682724,12.88267321,77.64414918,8.37
152282874425,-0.18604127,-0.84723663,9.498772,-0.0065719606,0.031694032,0.02967224,12.88260686,77.64418884,8.62
152282874446,-0.35916597,-0.774852,9.69917,-0.03222809,0.027781677,0.01038208,12.88260686,77.64418884,8.62
152282874467,-0.46528473,-0.8006973,9.820012,0.049743652,0.033895873,0.028445434,12.88260686,77.64418884,8.62
152282874488,-0.54006195,-0.55878294,10.109302,0.008329773,0.04855194,0.014164734,12.88260686,77.64418884,8.62
152282874509,-0.18831635,-0.6073593,10.253591,0.008206177,0.023023987,-0.02480774,12.88260686,77.64418884,8.62
152282874531,-0.48706207,-0.83000946,9.439433,-0.045176696,-0.013986206,-0.034706116,12.8825317,77.64423051,8.81
152282874552,-0.47330323,-1.1682342,9.793451,0.027018737,-0.01631012,-0.010516358,12.8825317,77.64423051,8.81
152282874573,-0.22791901,-1.5480973,9.764257,-0.02306671,0.0020111084,-0.018458556,12.8825317,77.64423051,8.81
152282874594,-0.40079802,-1.4142182,9.786989,-2.243042E-4,-0.029133607,-0.033726502,12.8825317,77.64423051,8.81
152282874616,-0.36574402,-1.5667603,9.542921,-0.007800293,-0.06138611,-0.02004242,12.8825317,77.64423051,8.81
152282874637,-0.33116913,-1.3856246,9.33666,-0.004992676,-0.056257628,0.0037750243,12.88247496,77.64426386,8.76
152282874658,-0.44279176,-1.6146195,10.408884,0.0047805784,-0.053814698,0.018193055,12.88247496,77.64426386,8.76
152282874680,-0.6032318,-1.1720626,9.901126,-0.015983582,-0.029867554,0.04688873,12.88247496,77.64426386,8.76
152282874701,-0.2916855,-1.6204803,8.974385,0.028363038,0.020574952,0.054101564,12.88247496,77.64426386,8.76
152282874722,-0.5146988,-1.1719437,9.876001,-0.029910278,0.06565704,0.060694885,12.88241079,77.64430787,8.45
152282874743,-0.32973328,-1.1560333,10.092911,0.058293153,0.0838562,0.020758057,12.88241079,77.64430787,8.45
152282874765,-0.2924057,-1.1249268,9.385953,-0.04664459,0.08019562,-0.017111206,12.88241079,77.64430787,8.45
152282874786,-0.4351364,-0.94414675,9.633009,6.378174E-4,0.028637696,-0.047164917,12.88241079,77.64430787,8.45
152282874807,-0.36335143,-0.95132446,10.283739,0.025915528,-0.004585266,-0.046310425,12.88241079,77.64430787,8.45
152282874828,-0.31920013,-1.2869186,9.37219,-0.01769104,-0.021684265,-0.04472351,12.88234976,77.6443491,8.09
152282874850,-0.44901428,-0.8355133,10.052592,0.029223632,-0.026815796,-0.034336854,12.88234976,77.6443491,8.09
152282874871,-0.41192627,-0.9134003,10.328961,0.0068588257,-0.017285157,-0.035679627,12.88234976,77.6443491,8.09
152282874892,-0.14572296,-1.1307892,9.368843,-0.024777222,-0.03707428,-0.044966124,12.88234976,77.6443491,8.09
152282874913,-0.41970214,-1.2054428,9.378413,8.7280275E-4,-0.06993713,-0.039837647,12.88234976,77.6443491,8.09
152282874935,-0.54042053,-1.5002396,9.543757,0.0073532104,-0.07042541,0.0047576902,12.88228023,77.64438408,8.12
152282874956,-0.33020934,-1.39962,9.284854,-0.0047439574,-0.043913268,0.024789428,12.88228023,77.64438408,8.12
152282874977,-0.5577713,-1.532782,10.89295,0.01700287,-0.023632813,0.03174591,12.88228023,77.64438408,8.12
152282874999,-0.33655244,-2.2216735,8.28274,-0.06923981,0.008726502,0.042007446,12.88228023,77.64438408,8.12
152282875020,-0.70217437,-0.11180572,9.444095,0.017611694,0.044030763,0.060694885,12.88228023,77.64438408,8.12
152282875041,-0.2354538,-0.39272004,11.04286,0.038504027,0.101940915,0.03309021,12.88222041,77.64441335,7.83
152282875062,-4.8065186E-4,0.05066986,10.080469,-0.007672119,0.05857086,-0.042155456,12.88222041,77.64441335,7.83
152282875083,-0.18807678,-0.38518524,10.559631,1.4343261E-4,-0.030480957,-0.08955841,12.88222041,77.64441335,7.83
152282875105,-0.5697311,-0.9567078,10.527448,-0.009143067,-0.108789064,-0.0569397,12.88222041,77.64441335,7.83
152282875126,-0.7734817,-0.9216553,9.554767,0.028733825,-0.10072174,0.010493469,12.88216803,77.64444263,7.36
152282875147,-0.50560457,-0.8664993,9.482382,-0.02159729,-0.073114015,0.048727416,12.88216803,77.64444263,7.36
152282875168,-0.49040985,-0.99319917,9.670698,0.02640686,-0.022540282,0.07657623,12.88216803,77.64444263,7.36
152282875190,-0.5058441,-1.1039902,9.922783,0.006134033,0.038412474,0.08904266,12.88216803,77.64444263,7.36
152282875211,-0.42484587,-0.8800186,9.696063,-0.0031585693,0.08105011,0.07242279,12.88216803,77.64444263,7.36
152282875232,-0.1812561,-0.69134676,9.637439,0.011257934,0.109269716,0.036878966,12.88211058,77.64447386,7.25
152282875253,-0.5029724,-0.18203124,9.842741,0.0064941407,0.09827423,-0.017597962,12.88211058,77.64447386,7.25
152282875274,-0.29898682,-0.86147463,9.584195,0.0033218383,0.057473756,-0.059138488,12.88211058,77.64447386,7.25
152282875296,-0.17611237,-1.0532593,9.510262,6.347656E-4,-0.0012878418,-0.08577118,12.88211058,77.64447386,7.25
152282875317,-0.34277344,-0.45194396,10.198553,-0.0057159425,-0.07995758,-0.09933166,12.88211058,77.64447386,7.25
152282875338,-0.400441,-0.8332413,9.721186,0.014802551,-0.1306549,-0.064633176,12.88205102,77.64451006,7.45
152282875360,-0.5873184,-0.6856033,9.863678,8.789062E-4,-0.11049805,0.011961365,12.88205102,77.64451006,7.45
152282875381,-0.382135,-0.75703126,9.848963,0.014195251,-0.073358156,0.043833923,12.88205102,77.64451006,7.45
152282875402,-0.40821686,-0.57373655,9.805534,-0.021720886,-0.04855957,0.05532074,12.88205102,77.64451006,7.45
152282875423,-0.4351364,-0.6187256,10.151176,0.030072022,-6.744385E-4,0.07230377,12.88198316,77.64455145,7.78
152282875444,-0.45571288,-0.74709624,10.210518,-0.016838074,0.051486205,0.073036194,12.88198316,77.64455145,7.78
152282875467,-0.38739777,-0.7405182,9.632294,2.1362304E-5,0.08337402,0.058129884,12.88198316,77.64455145,7.78
152282875487,-0.39505616,-0.59874266,9.934268,-0.010977173,0.09314575,0.02185669,12.88198316,77.64455145,7.78
152282875508,-0.52618253,-0.42167512,9.914886,0.010035706,0.10340576,-0.011247253,12.88198316,77.64455145,7.78
152282875530,-0.17994232,-0.84305114,9.721664,-0.014395142,0.10242768,-0.032258607,12.88192432,77.64458685,8.0
152282875551,-0.36610565,-0.6488754,9.832214,0.015774537,0.073475644,-0.07526398,12.88192432,77.64458685,8.0
152282875572,-0.3232727,-0.81325835,9.576897,0.0020996095,0.024726868,-0.10519715,12.88192432,77.64458685,8.0
152282875593,-0.26823577,-0.8364731,9.528087,0.022129823,-0.036340334,-0.11557617,12.88192432,77.64458685,8.0
152282875615,-0.31740874,-0.906102,9.978892,0.020298768,-0.095228575,-0.109838866,12.88192432,77.64458685,8.0
152282875636,-0.47019044,-0.8351532,9.548184,-0.006944275,-0.14934997,-0.09407959,12.88185496,77.64462551,8.32
152282875657,-0.5282181,-0.593956,9.565173,0.0045394897,-0.17341308,-0.039837647,12.88185496,77.64462551,8.32
152282875678,-0.70037997,-0.56081694,10.066472,0.0056396485,-0.13529816,0.034188844,12.88185496,77.64462551,8.32
152282875699,-0.47677,-0.7919632,9.889043,9.96399E-4,-0.07152405,0.07413788,12.88185496,77.64462551,8.32
152282875721,-0.5094345,-0.49537507,9.980448,-0.0030334473,-0.016798401,0.07706757,12.88178616,77.64466836,8.51
152282875742,-0.396492,-0.9996597,9.538373,-0.005844116,0.01984558,0.07779846,12.88178616,77.64466836,8.51
152282875763,-0.50536346,-0.9691528,9.585872,-0.0040115356,0.05026398,0.07755585,12.88178616,77.64466836,8.51
152282875785,-0.30065918,-0.49262086,10.009165,0.003315735,0.09839783,0.059231568,12.88178616,77.64466836,8.51
152282875806,-0.21320191,-0.75056916,9.556918,0.009181214,0.11244659,0.026989747,12.88178616,77.64466836,8.51
152282875827,-0.21834716,-1.0546967,9.718317,0.011012268,0.09888611,-0.011732483,12.8817203,77.64471568,8.72
152282875848,-0.27900696,-1.0055237,9.748944,0.0051483153,0.06809845,-0.044966124,12.8817203,77.64471568,8.72
152282875869,-0.47294313,-1.03974,9.588504,0.007714844,0.022044372,-0.061094664,12.8817203,77.64471568,8.72
152282875891,-0.35509795,-0.97716826,9.777655,-0.017933656,-0.0049560545,-0.06365967,12.8817203,77.64471568,8.72
152282875912,-0.37555543,-1.3867004,9.702405,-0.0014434814,-0.03499756,-0.07575073,12.8817203,77.64471568,8.72
152282875933,-0.28546754,-1.6575683,9.753847,-0.018791199,-0.081056215,-0.065122984,12.88164698,77.64475696,8.95
152282875955,-0.49471742,-1.567717,9.74631,0.0027053833,-0.0749466,-0.024809266,12.88164698,77.64475696,8.95
152282875976,-0.6393631,-1.5585053,10.14974,-0.0031539917,-0.03731537,0.011235046,12.88164698,77.64475696,8.95
152282875997,-0.70528567,-1.4191208,9.997915,0.006613159,-0.0012893677,0.009519959,12.88164698,77.64475696,8.95
152282876018,-0.24179688,-1.7433517,9.198474,-0.0059692385,0.0038391114,-0.0059890747,12.88164698,77.64475696,8.95
152282876040,-0.33176574,-2.224547,10.031535,-0.009017944,-0.013009643,-0.020898437,12.88157863,77.64480297,8.6
152282876061,-0.35521698,-2.5850265,9.005972,-0.008531189,-0.020703126,-0.010150147,12.88157863,77.64480297,8.6
152282876110,-0.17300567,-1.3173081,8.89016,-0.008283997,-0.013990784,0.0078079225,12.88157863,77.64480297,8.6
152282876131,-0.17324372,-2.9904892,9.309743,-0.0024230957,0.0067733764,0.011474609,12.88157863,77.64480297,8.6
152282876152,-0.7667801,-2.2050462,10.202263,0.0054000854,0.021437073,-0.004159546,12.88152328,77.64483105,8.02
152282876173,-0.0051467894,-2.8272996,9.80625,0.012350464,0.017523194,-0.014178467,12.88152328,77.64483105,8.02
152282876195,-0.14859772,-2.8146164,9.785434,0.0024612427,0.008117676,-0.032626342,12.88152328,77.64483105,8.02
152282876216,-0.17862396,-2.4999604,9.682063,-1.05285646E-4,-0.039395142,-0.06157837,12.88152328,77.64483105,8.02
152282876237,-0.421138,-2.6629136,9.864039,0.00612793,-0.09583588,-0.060847472,12.88152328,77.64483105,8.02
152282876258,-0.69104767,-2.868576,9.656819,-0.0064575197,-0.10903168,0.015379334,12.88147307,77.64485902,6.51
152282876280,-0.6245285,-2.726085,9.500567,0.0018493652,-0.06920318,0.10761261,12.88147307,77.64485902,6.51
152282876302,-0.32219392,-2.3667984,10.200229,0.016143799,-0.020822143,0.121414185,12.88147307,77.64485902,6.51
152282876323,-0.54185486,-2.2915466,9.301964,0.014801025,-0.0025100708,0.11420746,12.88147307,77.64485902,6.51
152282876343,-0.30317384,-1.6964508,9.53311,0.009182739,0.0038375854,0.10809479,12.88147307,77.64485902,6.51
152282876365,-0.39924318,-1.5041901,10.04673,0.01027832,0.019480895,0.11017609,12.88143828,77.64487745,4.91
152282876386,-0.54436797,-1.3762925,9.705035,-0.0070678713,0.019352723,0.10516663,12.88143828,77.64487745,4.91
152282876408,-0.46767884,-1.5061004,9.325055,0.0035614013,0.055763245,0.10895538,12.88143828,77.64487745,4.91
152282876428,-0.13447876,-1.4327606,10.036322,0.007597351,0.094120786,0.083911136,12.88143828,77.64487745,4.91
152282876450,-0.29359895,-1.3370469,9.484775,-0.026487732,0.081661984,-0.017601013,12.88140694,77.64489916,4.13
152282876471,-0.34409028,-1.5468994,9.74308,0.043388367,0.04671936,-0.08112641,12.88140694,77.64489916,4.13
152282876492,-0.37100983,-1.1115249,10.353968,0.24142762,0.035359193,-0.080761716,12.88140694,77.64489916,4.13
152282876514,-0.40893403,-2.5575104,7.1159973,-0.3385025,0.020945739,-0.080029294,12.88140694,77.64489916,4.13
152282876535,-0.28103942,-0.4426132,11.183919,-0.19287567,0.0060394285,-0.15492249,12.88140694,77.64489916,4.13
152282876556,-0.44578248,-0.96927184,7.577098,0.49371797,-0.0051940917,-0.13463593,12.88138123,77.64492005,3.74
152282876578,-0.44326934,0.14458771,12.877321,-0.1910431,0.003111267,-0.12156677,12.88138123,77.64492005,3.74
152282876598,-1.0323868,0.597908,10.1473465,0.086517334,0.0011520386,-0.103608705,12.88138123,77.64492005,3.74
152282876620,-0.45631257,-0.1222107,12.24585,0.0069885254,-0.021565247,-0.13195343,12.88138123,77.64492005,3.74
152282876641,-0.5621948,0.33912355,8.143118,-0.03222809,-0.03279724,-0.098962404,12.88138123,77.64492005,3.74
152282876662,-0.39026946,0.05294342,10.833371,0.04876404,-0.09461822,-0.10519562,12.88134281,77.64493776,4.03
152282876683,-0.53491515,0.21445923,9.294187,-0.066921994,-0.09669037,-0.03054657,12.88134281,77.64493776,4.03
152282876705,-0.63936156,-0.3732193,10.214586,0.069776915,-0.081422426,0.024053955,12.88134281,77.64493776,4.03
152282876726,-0.5464035,-0.10869293,9.955684,-0.05946808,-0.041719057,0.07132721,12.88134281,77.64493776,4.03
152282876748,-0.3323639,-0.10510254,9.68912,0.04509735,-0.010206604,0.08439789,12.88134281,77.64493776,4.03
152282876768,-0.37687072,-0.37334138,9.921824,-0.025387574,0.03425598,0.08207703,12.88130982,77.64495042,4.39
152282876790,-0.25232697,-0.19076844,9.801466,0.015412902,0.053685,0.05544281,12.88130982,77.64495042,4.39
152282876811,-0.23222351,-0.26686096,9.9669285,-0.011582946,0.039512634,0.005125427,12.88130982,77.64495042,4.39
152282876833,-0.36801758,-0.21565399,9.598434,-0.0030334473,0.016299438,-0.01649933,12.88130982,77.64495042,4.39
152282876853,-0.36741942,-0.3957123,10.1436405,0.005029297,-0.007388306,-0.030673217,12.88127181,77.6449779,5.07
152282876875,-0.42640382,-0.27978212,9.582881,0.0062545775,-0.029623413,-0.024565125,12.88127181,77.6449779,5.07
152282876896,-0.25531465,-0.44404602,9.835802,-0.0011978149,-0.030474853,0.0035354614,12.88127181,77.6449779,5.07
152282876917,-0.6057434,-0.1404007,10.182521,-2.2735595E-4,-0.0034866333,0.025764465,12.88127181,77.6449779,5.07
152282876938,-0.66401064,-0.3909256,9.894308,0.009797668,0.030838013,0.03187256,12.88127181,77.6449779,5.07
152282876960,-0.57069093,-0.33158416,10.139453,-1.0375977E-4,0.07164154,0.023692321,12.88122118,77.6450035,5.93
152282876981,-0.051927187,-0.27559203,9.874565,0.004179382,0.09167938,-0.019435119,12.88122118,77.6450035,5.93
152282877002,-0.37160796,-0.61190337,10.065511,0.016638184,0.066877745,-0.07367401,12.88122118,77.6450035,5.93
152282877023,-0.20087738,-0.52061766,9.739731,0.0038070679,0.002493286,-0.115335084,12.88122118,77.6450035,5.93
152282877045,-0.3405014,-0.78311,9.8398695,-0.002545166,-0.08655091,-0.12437592,12.88122118,77.6450035,5.93
152282877066,-0.2847473,-1.5701096,8.945193,-0.03173981,-0.15301056,-0.08943329,12.88115926,77.64504173,6.82
152282877087,-0.27266234,-1.7407181,8.948784,-0.0020553588,-0.14751892,-0.0057525635,12.88115926,77.64504173,6.82
152282877109,-0.81248474,-1.4850448,10.032611,0.0068618776,-0.09608154,0.050309755,12.88115926,77.64504173,6.82
152282877130,-0.49603575,-1.6082733,9.166647,0.0018493652,-0.06261291,0.065093994,12.88115926,77.64504173,6.82
152282877151,-0.58588564,-1.237149,9.889043,0.011378479,-0.032064818,0.103701785,12.88110425,77.64506804,7.16
152282877173,-0.10540619,-1.4175689,9.834726,0.0039245607,0.032550048,0.108465575,12.88110425,77.64506804,7.16
152282877193,-0.3833313,-1.5435501,9.729204,0.0071044923,0.06260071,0.08720551,12.88110425,77.64506804,7.16
152282877215,-0.34947205,-1.6063645,9.655264,-0.006086731,0.09473419,0.06692505,12.88110425,77.64506804,7.16
152282877236,-0.0029907227,-1.5939194,9.622961,0.00307312,0.08276062,7.2631834E-4,12.88110425,77.64506804,7.16
152282877257,0.1704895,-1.2334397,10.0559435,0.0040496825,0.0038436889,-0.07147674,12.88105807,77.64509507,6.73
152282877279,-0.5334824,-1.0677383,10.086092,0.024084473,-0.049780272,-0.042887878,12.88105807,77.64509507,6.73
152282877300,-0.37806854,-1.5532424,9.702283,-0.02184906,-0.052590944,-0.0039154054,12.88105807,77.64509507,6.73
152282877321,-0.79657286,-1.1483734,10.068504,-0.005116272,-0.04623566,0.020880127,12.88105807,77.64509507,6.73
152282877342,-0.53623354,-1.4351547,9.681584,0.004660034,-0.005685425,0.057518005,12.88105807,77.64509507,6.73
152282877363,-0.26907653,-1.2883545,9.726091,-0.0015731811,0.039881896,0.067784116,12.88100151,77.6451211,6.27
152282877385,-0.09619293,-1.5958328,9.605734,0.0027038574,0.06296692,0.016728211,12.88100151,77.6451211,6.27
152282877406,-0.33296356,-1.9547577,9.858892,-0.0055984496,0.046354674,-0.021142578,12.88100151,77.6451211,6.27
152282877428,-0.0893753,-2.1348176,9.57606,0.0060028075,-0.010079956,-0.06072693,12.88100151,77.6451211,6.27
152282877448,-0.3561737,-2.061119,9.872412,-0.0043792725,-0.031210328,-0.061094664,12.88095579,77.64515323,5.97
152282877470,-0.3340393,-2.36716,9.624397,-0.008407593,-0.062849425,-0.03946991,12.88095579,77.64515323,5.97
152282877491,-0.5924652,-2.3702712,9.5457945,0.013819885,-0.073970035,0.004750061,12.88095579,77.64515323,5.97
152282877512,-0.7068405,-2.2155747,9.953647,-0.0015716553,-0.045262147,0.06692505,12.88095579,77.64515323,5.97
152282877533,-0.5126648,-2.3848662,9.527247,0.002583313,-0.031211853,0.07621002,12.88095579,77.64515323,5.97
152282877555,-0.6959549,-2.4859664,9.543516,0.005885315,0.005430603,0.11042023,12.88091977,77.64517582,5.13
152282877576,-0.31573334,-2.1796813,9.678476,0.004045105,0.04818573,0.10834656,12.88091977,77.64517582,5.13
152282877597,-0.36574554,-2.1318269,9.784596,0.007348633,0.06309052,0.0597229,12.88091977,77.64517582,5.13
152282877618,-0.1304123,-1.8743576,9.851236,0.012844848,0.058084108,0.011837768,12.88091977,77.64517582,5.13
152282877640,0.053001404,-1.8635895,9.614467,0.003805542,0.049772643,-0.04472351,12.88091977,77.64517582,5.13
152282877661,-0.19609222,-1.5555115,10.174864,-0.005723572,0.012023926,-0.1009201,12.8808929,77.64519635,3.82
152282877682,-0.3436142,-1.3226944,9.7764635,0.008815003,0.0040802,-0.09016724,12.8808929,77.64519635,3.82
152282877703,-0.12155457,-1.1903687,11.461487,0.1447876,0.007997131,-0.08455048,12.8808929,77.64519635,3.82
152282877725,-0.31358185,-0.84101564,7.2665114,0.05695343,-0.014356995,-0.088824466,12.8808929,77.64519635,3.82
152282877746,-0.29156494,-1.8012574,12.189623,-0.38370973,0.02619934,-0.08748321,12.8808929,77.64519635,3.82
152282877767,-0.21523742,-0.110247806,7.3437986,0.029464722,-0.035366822,-0.11496887,12.88087025,77.645213,3.17
152282877788,-0.54389036,-0.5671585,11.525972,0.34210205,-0.035734557,-0.09395599,12.88087025,77.645213,3.17
152282877810,-0.41252595,-0.32309112,9.157675,-0.18896942,-0.0055633546,-0.03347931,12.88087025,77.645213,3.17
152282877831,-0.28283387,-0.41688997,9.539091,0.14039154,-0.051487733,-0.054740906,12.88087025,77.645213,3.17
152282877852,-0.3877594,-0.5499283,10.389383,-0.09758453,-0.07225952,-0.032626342,12.88084599,77.64523497,3.09
152282877873,-0.43034822,-0.37082824,9.217377,0.04949951,-0.065171815,0.016966248,12.88084599,77.64523497,3.09
152282877895,-0.33643037,-1.090828,9.79584,0.0071090697,-0.07262421,0.060333252,12.88084599,77.64523497,3.09
152282877916,-0.7267014,-0.06550141,10.08741,0.0013656616,-0.027305603,0.117018126,12.88084599,77.64523497,3.09
152282877938,-0.2969513,-1.3256851,9.295624,0.042529296,0.004826355,0.1388855,12.88084599,77.64523497,3.09
152282877958,-0.7116272,-0.08572388,10.207169,-0.03858032,0.048187256,0.12605743,12.88081964,77.64525505,3.66
152282877980,-0.7758743,-0.015609741,11.686651,-4.6539307E-4,0.1037735,0.10992889,12.88081964,77.64525505,3.66
152282878001,-0.29503632,0.032006837,10.788027,0.005030823,0.14494476,0.035780333,12.88081964,77.64525505,3.66
152282878023,-0.45738983,-0.11694946,11.634486,0.01932373,0.10719299,-0.10177612,12.88081964,77.64525505,3.66
152282878043,0.36143494,0.24137573,10.495741,-0.011703491,0.03853607,-0.1910843,12.88081964,77.64525505,3.66
152282878065,-0.5498718,-0.7650467,9.187586,0.026159668,-0.043670654,-0.2024475,12.88079257,77.6452792,4.17
152282878086,-0.46145782,-0.7292725,9.302443,0.010774231,-0.08740692,-0.13219146,12.88079257,77.6452792,4.17
152282878108,-0.43561402,-0.65940094,9.625711,0.020303344,-0.08423004,-0.04435272,12.88079257,77.6452792,4.17
152282878128,-0.3523453,-0.8003403,9.72274,0.005279541,-0.08081055,-0.03201599,12.88079257,77.6452792,4.17
152282878150,-0.40366974,-0.78933257,9.6562195,-0.006086731,-0.0826416,-0.007946777,12.8807533,77.64529536,4.8
152282878171,-0.68674314,-0.46486512,9.5813265,0.008450317,-0.04367218,0.072058104,12.8807533,77.64529536,4.8
152282878192,-0.637088,0.049591064,10.042903,-0.00315094,0.01752014,0.08769989,12.8807533,77.64529536,4.8
152282878213,-0.30018312,-0.41150665,10.044098,-0.002418518,0.043664552,0.050923157,12.8807533,77.64529536,4.8
152282878235,-0.3729248,-0.5019516,9.940369,0.007472229,0.061012268,0.027227784,12.8807533,77.64529536,4.8
152282878256,-0.11079101,-0.8138596,9.626073,0.006863403,0.057714842,-0.009169007,12.88070305,77.64532074,5.3
152282878278,-0.41515654,-0.116111755,9.927567,2.670288E-4,0.035112,-0.046069335,12.88070305,77.64532074,5.3
152282878298,-0.37077028,-0.3948761,9.629659,0.008084106,-0.0034881593,-0.07123413,12.88070305,77.64532074,5.3
152282878320,-0.55118865,-0.5072174,9.79273,-0.001322937,-0.04623566,-0.07770844,12.88070305,77.64532074,5.3
152282878341,-0.26811677,-0.60711974,9.639949,7.537842E-4,-0.089486696,-0.06463623,12.88070305,77.64532074,5.3
152282878363,-0.51039124,-0.47288054,9.7915325,0.0061294558,-0.123449706,-0.025907898,12.88064984,77.64535564,5.62
152282878383,-0.4247284,-0.575174,9.8246765,0.00234375,-0.10206757,0.05983887,12.88064984,77.64535564,5.62
152282878405,-0.13531342,-0.3649643,9.966807,0.008325195,-0.030111695,0.10638733,12.88064984,77.64535564,5.62
152282878426,-0.2781662,-0.5583054,9.827786,0.006864929,0.034994505,0.10638733,12.88064984,77.64535564,5.62
152282878448,-0.6144806,-0.8845642,9.613388,0.010281372,0.08740082,0.088796996,12.88064984,77.64535564,5.62
152282878468,-0.27290344,-0.4082718,10.374186,-0.0082901,0.10316162,0.03504791,12.8806087,77.64538047,6.55
152282878490,-0.094998166,-0.8810959,9.659811,0.02616272,0.07103119,-0.031770326,12.8806087,77.64538047,6.55
152282878511,-0.2785248,-0.57529604,9.946829,-0.01756897,0.0040924074,-0.061582945,12.8806087,77.64538047,6.55
152282878532,-0.6563522,-0.8004608,9.54292,-0.015248108,-0.039888002,-0.04032593,12.8806087,77.64538047,6.55
152282878553,-0.27062836,-0.9045456,9.731714,0.01894989,-0.032432556,-0.011247253,12.88055514,77.64541022,6.85
152282878575,-0.42065734,-0.6227905,9.809599,-0.0054748533,-0.042207338,-0.01638031,12.88055514,77.64541022,6.85
152282878596,-0.29312134,-0.6456421,9.9561615,-0.002668762,-0.06884003,-0.012959289,12.88055514,77.64541022,6.85
152282878618,-0.57954407,-0.5769684,9.808283,-0.001687622,-0.080078125,0.010131836,12.88055514,77.64541022,6.85
152282878638,-0.65336,-0.63355863,9.878634,0.016511535,-0.05308075,0.06851502,12.88055514,77.64541022,6.85
