timestamp,accx,accy,accz,gyrx,gyry,gyrz,longitude,latitude,speed
152145408940,0.22974853,-0.72623444,9.756659,-2.0446777E-4,0.003074646,1.5258789E-5,77.6520201,12.84046252,0.0
152145408963,0.23501739,-0.6724838,9.829323,-4.1503907E-4,-0.0034271241,-1.449585E-4,77.6520201,12.84046252,0.0
152145408984,0.2540512,-0.7162994,9.739777,3.845215E-4,-0.0049194335,4.4250488E-4,77.6520201,12.84046252,0.0
152145409006,0.3129471,-0.6866089,9.797717,-5.203247E-4,0.009307861,-4.6539307E-4,77.65201968,12.84046341,0.0
152145409028,0.19730835,-0.67020875,9.789938,-0.002493286,0.02400818,2.822876E-4,77.65201968,12.84046341,0.0
152145409050,0.13457641,-0.704689,9.789581,7.0495607E-4,0.02182312,-2.5177002E-4,77.65201968,12.84046341,0.0
152145409072,0.132901,-0.7036133,9.806216,0.004486084,0.0053649903,-4.0740968E-4,77.65201968,12.84046341,0.0
152145409094,0.13218537,-0.67966616,9.795207,-0.004734802,-0.022764588,0.0024154664,77.65201968,12.84046341,0.0
152145409116,0.2606369,-0.71558076,9.783473,-4.196167E-4,-0.006462097,-3.036499E-4,77.65202003,12.84046464,0.0
152145409138,0.16019592,-0.66650087,9.83315,-6.8359374E-4,0.012504578,2.3040772E-4,77.65202003,12.84046464,0.0
152145409161,0.1659439,-0.72120667,9.802145,0.0028366088,-0.018878173,0.0017227173,77.65202003,12.84046464,0.0
152145409182,0.28338012,-0.67786866,9.761686,-0.001373291,0.0022201538,5.493164E-4,77.65202003,12.84046464,0.0
152145409204,0.13505706,-0.6893646,9.793172,-7.324219E-4,0.01788025,-7.324219E-4,77.65202034,12.84046507,0.0
152145409227,0.15145874,-0.71378785,9.835905,1.2207031E-5,-0.014297485,9.765625E-4,77.65202034,12.84046507,0.0
152145409249,0.22112885,-0.6796692,9.795444,9.1552734E-4,-0.006942749,-0.0029678345,77.65202034,12.84046507,0.0
152145409271,0.25452727,-0.6517746,9.742653,0.011412049,-0.012698364,0.0040130615,77.65202034,12.84046507,0.0
152145409293,0.3356964,-0.6499802,9.767313,0.01759491,0.035032652,-4.623413E-4,77.65202034,12.84046507,0.0
152145409315,0.12512207,-0.55899656,9.812326,0.022862244,0.13346557,-6.210327E-4,77.65202034,12.84046507,0.0
152145409337,-0.42722932,-0.6528519,9.838661,-0.013148499,0.05569763,0.00433197,77.65202034,12.84046507,0.0
152145409359,-0.08868408,-0.5811447,9.741455,0.010238647,-0.014878845,-8.865356E-4,77.65202034,12.84046507,0.0
152145409381,-0.26753235,-0.5619919,9.798556,0.019456482,0.0049362183,-0.008403015,77.65202034,12.84046507,0.0
152145409403,-0.21976623,-0.55480653,9.871701,0.0071517946,-0.059835814,6.0272217E-4,77.65202033,12.84046497,0.0
152145409425,0.13314056,-0.5278732,9.678845,-0.0060073854,0.01878662,-0.0034469604,77.65202033,12.84046497,0.0
152145409447,-0.3105072,-0.5543289,9.815915,0.0057662963,0.0020553588,-0.0033950806,77.65202033,12.84046497,0.0
152145409469,-0.082341,-0.50368804,9.839621,0.009921265,-0.10723724,-0.0014251709,77.65202033,12.84046497,0.0
152145409491,0.33916473,-0.5344604,9.770067,-0.007818604,-0.040124513,-2.4871825E-4,77.65202033,12.84046497,0.0
152145409513,0.18569794,-0.4911255,9.8252535,0.0043273927,0.011225891,0.0033187866,77.65202003,12.84046461,0.0
152145409535,0.11746216,-0.5285934,9.801786,-0.0023330688,0.016870117,-9.933471E-4,77.65202003,12.84046461,0.0
152145409557,0.22460175,-0.5178192,9.8543415,0.004911804,0.026191711,0.0063064573,77.65202003,12.84046461,0.0
152145409579,-0.1346527,-0.49770203,9.851469,0.0024093627,0.01841278,-0.009039307,77.65202003,12.84046461,0.0
152145409601,0.10046234,-0.5272751,9.809927,0.0016098022,-0.06857147,0.0036392212,77.65201969,12.84046415,0.0
152145409623,0.28409576,-0.52308196,9.742292,0.0016098022,-0.050994873,-4.058838E-4,77.65201969,12.84046415,0.0
152145409645,0.42547607,-0.47519988,9.763722,-0.008032227,0.02326355,0.0018829346,77.65201969,12.84046415,0.0
152145409667,0.17707977,-0.5482254,9.791614,-0.0037216186,0.050424196,0.0025741577,77.65201969,12.84046415,0.0
152145409689,0.10046387,-0.53721315,9.858294,-0.0013214111,0.042863466,-5.691528E-4,77.65201969,12.84046415,0.0
152145409711,0.0030166626,-0.52608186,9.80071,0.0016082764,0.008239746,0.0012435913,77.65201937,12.84046382,0.0
152145409733,-9.6130374E-5,-0.53230286,9.757495,-0.006967163,0.0411026,-0.0037109375,77.65201937,12.84046382,0.0
152145409755,-0.08257904,-0.5459503,9.807653,0.003048706,0.014154052,0.0011901855,77.65201937,12.84046382,0.0
152145409777,-0.09215393,-0.5448715,9.88331,-4.1656493E-4,-0.018873597,-0.0013687133,77.65201937,12.84046382,0.0
152145409799,0.0054107667,-0.53625333,9.791014,-2.5634764E-4,-0.019624328,0.0014572144,77.65201897,12.84046345,0.0
152145409821,0.080947876,-0.52260745,9.792091,7.064819E-4,1.953125E-4,1.5258789E-5,77.65201897,12.84046345,0.0
152145409844,-0.13082275,-0.5581589,9.823099,-6.286621E-4,0.011862183,-0.0017410278,77.65201897,12.84046345,0.0
152145409866,0.079273984,-0.5184143,9.820224,0.003578186,-0.031021118,0.0037445067,77.65201897,12.84046345,0.0
152145409888,0.060479738,-0.5153,9.763245,1.6937256E-4,-0.004173279,-0.0016342163,77.65201897,12.84046345,0.0
152145409909,0.081185915,-0.5494232,9.793768,-0.0018569946,0.008454895,7.644653E-4,77.65201858,12.84046313,0.0
152145409932,0.021450806,-0.517218,9.841772,-0.0021743774,0.020602416,0.0016174316,77.65201858,12.84046313,0.0
152145409954,-0.056123354,-0.56175387,9.816754,-0.0029205321,0.019749451,2.2888184E-4,77.65201858,12.84046313,0.0
152145409976,-0.03565216,-0.54319763,9.782156,-0.004093933,0.012077332,-2.5024413E-4,77.65201858,12.84046313,0.0
152145409998,-0.115501404,-0.57229006,9.816391,-0.0044662477,-0.0018814087,0.0018295288,77.65201826,12.84046289,0.0
152145410020,-0.04462738,-0.54487306,9.776054,0.0025146485,-0.022021484,-0.0021148683,77.65201826,12.84046289,0.0
152145410042,0.073524475,-0.552533,9.815317,8.621216E-4,0.0046676635,9.765625E-4,77.65201826,12.84046289,0.0
152145410064,-0.0496582,-0.62903136,9.818545,-0.0054779053,0.05127716,-3.5552977E-4,77.65201826,12.84046289,0.0
152145410086,-0.24850006,-0.49483642,9.795087,0.0027252198,0.03785553,-0.0011550903,77.65201826,12.84046289,0.0
152145410108,-0.23676758,-0.053703308,9.807057,0.00960083,0.0230484,-0.00206604,77.65201798,12.84046273,0.0
152145410130,-0.1922348,0.3874298,9.732715,0.010081482,0.01484375,-0.030612182,77.65201798,12.84046273,0.0
152145410152,-0.16194916,0.7920532,9.880796,0.010984803,-0.017170716,-0.08632507,77.65201798,12.84046273,0.0
152145410174,-0.34079283,1.1237656,9.916351,0.012794495,0.011326599,-0.06587372,77.65201798,12.84046273,0.0
152145410196,-0.26190645,1.1636337,9.916468,0.01769867,0.0016860962,-0.11183777,77.65201798,12.84046273,0.0
152145410218,-0.040678404,1.0248871,9.827405,-0.0022277832,-0.0067825317,-0.08052216,77.65201533,12.84046364,0.34
152145410240,-0.15524292,1.1929626,9.818428,0.02941742,-0.110594176,-0.159935,77.65201533,12.84046364,0.34
152145410262,-1.2392197,1.1146713,9.891332,0.017855834,-0.10431214,0.057383727,77.65201533,12.84046364,0.34
152145410284,-1.0881469,1.1564529,9.601155,-0.006059265,0.03551178,0.31038514,77.65201533,12.84046364,0.34
152145410306,0.44414824,0.9197815,9.903063,-0.027955627,0.045262147,0.20695038,77.65200577,12.84046884,1.8
152145410328,-0.9127701,0.8593277,9.706502,-0.0102676395,0.04296875,0.08801117,77.65200577,12.84046884,1.8
152145410350,-0.46912384,0.67437744,9.692854,-0.032801818,0.15114899,0.20828095,77.65200577,12.84046884,1.8
152145410372,0.58624727,0.6817993,9.986623,-0.017298888,0.19626312,-0.010635376,77.65200577,12.84046884,1.8
152145410394,0.54542696,-0.59874725,10.232027,0.016421508,-0.00625,-0.33085936,77.65200577,12.84046884,1.8
152145410416,-0.6336044,-0.9098755,9.693571,0.019828796,-0.15389863,-0.25266418,77.65198196,12.8404783,3.32
152145410438,-0.96604156,-0.9321411,9.66963,0.016207885,-0.13621521,0.019725036,77.65198196,12.8404783,3.32
152145410461,-0.79090726,-0.80261075,9.56321,-0.0056900023,-9.2010497E-4,0.15246125,77.65198196,12.8404783,3.32
152145410482,0.35711822,-1.1477387,9.672381,-0.04457245,0.021504212,0.09003601,77.65198196,12.8404783,3.32
152145410504,0.06442261,-1.1750305,9.776652,0.0056015016,-0.07794647,-0.112371825,77.65194806,12.84049095,4.06
152145410526,-0.83100736,-1.0846481,9.542618,-0.039671324,-0.08300171,0.049179077,77.65194806,12.84049095,4.06
152145410548,-0.64186704,-1.0089905,9.733553,0.015405273,0.10134735,0.29419404,77.65194806,12.84049095,4.06
152145410571,0.605275,-1.0725571,9.045581,-0.07019196,0.14055176,0.12188568,77.65194806,12.84049095,4.06
152145410593,0.6645355,-1.1346848,9.510297,0.035697937,-0.015039062,-0.23898163,77.65194806,12.84049095,4.06
152145410615,-1.1519455,-1.6934936,12.161153,-0.21112823,-0.08188629,-0.11481933,77.65191409,12.84050258,3.59
152145410637,-0.079704285,-0.12768555,9.517359,0.34388122,0.050691225,0.16066284,77.65191409,12.84050258,3.59
152145410659,-0.37395325,-0.523085,9.581164,0.4664963,0.13042602,-0.11796417,77.65191409,12.84050258,3.59
152145410681,0.7138565,0.43998718,10.001343,-0.47179717,-0.058610536,-0.04057007,77.65191409,12.84050258,3.59
152145410703,-0.5500473,0.6634842,9.225386,0.11074829,-0.042311095,-0.25890046,77.65188363,12.84051242,3.31
152145410725,-0.6965729,0.13855591,10.638802,-0.051600646,-0.06771698,-0.030397033,77.65188363,12.84051242,3.31
152145410747,-0.02487793,-0.5451126,9.139554,-0.022357177,0.013510132,0.11980896,77.65188363,12.84051242,3.31
152145410769,0.39207307,-1.0968597,10.681058,-0.01799469,-0.13025054,-0.18220215,77.65188363,12.84051242,3.31
152145410791,-1.0078201,-0.7786667,8.988359,-0.007659912,-0.13131714,0.043269347,77.65188363,12.84051242,3.31
152145410813,-1.0687516,-0.9959442,10.3882475,-0.0042510987,0.03966675,0.3069229,77.65185269,12.84052225,3.71
152145410835,0.21119079,-0.84546816,9.409979,-0.016394043,0.11503448,0.2136612,77.65185269,12.84052225,3.71
152145410857,0.27260438,-1.0033661,9.970938,-0.026245117,0.06187744,-0.0060012816,77.65185269,12.84052225,3.71
152145410879,-0.28871766,-1.1101456,10.199702,-0.039349366,-0.05024872,-0.11151886,77.65185269,12.84052225,3.71
152145410901,-0.17942199,-2.5803056,12.042997,-0.2968216,-0.076235965,0.0409256,77.65183039,12.84052912,1.46
152145410923,-0.68172455,0.62361604,6.6098375,0.3058487,0.09915771,-0.11790772,77.65183039,12.84052912,1.46
152145410945,0.4785034,-1.8175094,9.010266,0.1639038,0.004989624,-0.0035537719,77.65183039,12.84052912,1.46
152145410967,-0.2352066,1.8484939,8.273809,-0.14619751,-0.21302032,-0.073861696,77.65183039,12.84052912,1.46
152145410989,-1.6649094,0.17698058,9.358983,0.1727478,0.009251404,0.21786804,77.65183039,12.84052912,1.46
152145411011,-0.47534943,0.5891434,10.42117,-0.14443818,0.07817535,0.3909195,77.65181681,12.84053383,1.52
152145411033,0.099617004,0.79300994,9.20755,0.024305725,0.22161254,0.16194305,77.65181681,12.84053383,1.52
152145411055,0.34084016,0.4836777,10.488207,-0.07450714,0.1403366,-0.07290192,77.65181681,12.84053383,1.52
152145411077,0.59642184,0.02111969,9.33935,0.045129396,-0.06233673,-0.29330748,77.65181681,12.84053383,1.52
152145411099,-0.86033785,-1.0140197,10.205213,-2.548218E-4,-0.21675262,-0.13681945,77.65181681,12.84053383,1.52
152145411121,-1.2064193,-0.9314178,9.311935,-0.008673096,-0.06878509,0.21706848,77.65180134,12.84053872,1.56
152145411143,-0.2198883,-0.6149063,9.967466,-0.013677979,0.06699066,0.1961914,77.65180134,12.84053872,1.56
152145411166,-0.11082916,-0.55744475,9.712484,-0.03290863,0.0838211,0.08731995,77.65180134,12.84053872,1.56
152145411187,-0.48145598,-0.6982193,9.799273,-0.0105896,0.12579498,0.06414948,77.65180134,12.84053872,1.56
152145411209,0.85140383,-0.73174286,10.024925,0.02393341,0.0055206297,-0.18795471,77.65178328,12.84054217,1.63
152145411232,-0.6186447,-0.63609314,9.699198,0.04151001,-0.10106049,-0.11482239,77.65178328,12.84054217,1.63
152145411254,-0.57901764,-0.6125107,9.817113,-0.004194641,-0.008644104,0.09259491,77.65178328,12.84054217,1.63
152145411276,-0.082696535,-0.7188141,9.854219,0.019670105,-0.005239868,-0.052983094,77.65178328,12.84054217,1.63
152145411298,-0.6700012,-0.67667544,9.906176,-0.022470092,0.01127472,0.06638794,77.65178328,12.84054217,1.63
152145411320,-0.08425293,-0.80668336,9.547885,-0.003767395,0.036260985,0.0051315306,77.65176453,12.84054667,1.65
152145411342,-0.423999,-1.014499,9.955498,-0.047821045,0.03631134,0.010404969,77.65176453,12.84054667,1.65
152145411364,-0.058158875,-0.7945892,9.765879,-0.0064865113,0.048452757,-0.02928009,77.65176453,12.84054667,1.65
152145411386,-0.22527161,-0.9145401,9.41321,0.06686249,-1.2512207E-4,-0.105609134,77.65176453,12.84054667,1.65
152145411409,-0.6342026,-0.61286926,10.17014,0.13487701,0.02197876,-0.018518066,77.65174903,12.84055008,0.52
152145411431,-0.20982972,-1.1934646,9.356466,-0.11051025,0.02406006,-0.0071762083,77.65174903,12.84055008,0.52
152145411453,-0.41836852,-0.2094452,9.459658,-0.06928711,0.06667175,-0.038711548,77.65174903,12.84055008,0.52
152145411475,0.2284317,-0.3947571,10.124049,0.1292328,0.005413818,-0.16627197,77.65174903,12.84055008,0.52
152145411497,-0.59924775,-0.39391786,9.741214,-0.07552032,-0.051153563,-0.12962799,77.65162008,12.8405645,3.68
152145411519,-0.09012146,-0.13701782,9.819865,0.07778015,-0.07224884,-0.12728576,77.65162008,12.8405645,3.68
152145411541,-0.6530029,-0.43210298,9.8816395,0.010189819,-0.10729523,-0.035723876,77.65162008,12.8405645,3.68
152145411563,-0.36892852,-0.21830292,9.837225,0.013435364,-0.08327179,0.03917084,77.65162008,12.8405645,3.68
152145411585,-0.5401123,-0.34376067,9.869783,-0.0022262572,-0.07357635,0.086416624,77.65162008,12.8405645,3.68
152145411607,-0.61361694,-0.28126985,9.698122,-0.009579468,-0.020471191,0.13009033,77.65158702,12.84057758,3.86
152145411629,-0.4211197,-0.41091767,9.715958,-0.001802063,0.074128725,0.1888382,77.65158702,12.84057758,3.86
152145411651,-0.14338836,-0.31215668,9.749954,-0.020391846,0.13154754,0.10601501,77.65158702,12.84057758,3.86
152145411673,-0.04965973,-0.31551057,9.899114,-0.0060623167,0.11663208,-0.005947876,77.65158702,12.84057758,3.86
152145411695,-0.25508118,-0.16036224,10.224127,0.02770691,0.07790985,-0.104595944,77.65158702,12.84057758,3.86
152145411717,0.010317993,-0.31551057,9.614926,0.0480072,0.03481903,-0.12014923,77.65154588,12.84058721,4.38
152145411739,-0.30488282,-0.44036865,9.656221,-0.048461914,-0.045240782,-0.15626374,77.65154588,12.84058721,4.38
152145411761,-0.43764192,-0.40505219,9.602472,-0.0018539429,-0.074057005,-0.10539703,77.65154588,12.84058721,4.38
152145411783,-0.576149,-0.48070678,9.645566,-3.6010743E-4,-0.049343873,-0.0013153076,77.65154588,12.84058721,4.38
152145411805,-0.14267425,-0.31275636,9.853983,-0.032484435,-0.026118468,-0.00589447,77.65150582,12.84060356,4.46
152145411827,-0.47774354,-0.37368622,9.837343,0.029415894,-0.046359252,-0.022410583,77.65150582,12.84060356,4.46
152145411849,-0.6811325,-0.42192993,9.963277,0.019242859,0.0028579712,0.06026001,77.65150582,12.84060356,4.46
152145411871,-0.12100677,-0.6770325,9.763842,-0.011759949,0.06933594,0.070698544,77.65150582,12.84060356,4.46
152145411893,-0.09551086,-0.89299166,9.939096,-0.027529906,0.02816162,-0.060176086,77.65150582,12.84060356,4.46
152145411916,-0.3604309,-0.91657716,9.648921,0.012423706,-0.019194031,-0.032955933,77.65145799,12.84061481,5.29
152145411937,0.21586303,-0.8917969,9.93311,0.010775757,-0.10792999,-0.11109619,77.65145799,12.84061481,5.29
152145411960,-0.6272629,-0.8753952,9.7450485,0.04182587,-0.20561676,-0.052555848,77.65145799,12.84061481,5.29
152145411982,-1.0128495,-1.0335343,9.810054,-0.010375977,-0.11613159,0.22191468,77.65145799,12.84061481,5.29
152145412004,0.1177002,-0.9372864,9.590982,-0.0028121949,-0.0014556885,0.2290512,77.65141683,12.84063038,4.71
152145412026,-0.1527298,-0.9281891,9.893965,0.018658448,0.013194275,0.14660034,77.65141683,12.84063038,4.71
152145412048,-0.14363098,-0.9144241,9.831838,-0.0036682128,0.012663269,0.14740296,77.65141683,12.84063038,4.71
152145412070,-0.17487487,-1.0103134,9.645688,-0.0019073486,0.036846925,0.15027466,77.65141683,12.84063038,4.71
152145412092,-0.33109587,-1.03461,9.555304,-0.018630981,0.13005371,0.2087082,77.65141683,12.84063038,4.71
152145412114,0.43157807,-0.8623444,9.846919,-0.026516724,0.13378295,0.045773316,77.65138135,12.84063858,4.16
152145412136,-0.1991745,-0.97547454,9.570028,-0.0019058228,0.125531,-0.046273805,77.65138135,12.84063858,4.16
152145412158,0.35340422,-1.6438172,10.317737,-0.2637497,0.036473084,-0.12376709,77.65138135,12.84063858,4.16
152145412180,-0.2071991,-0.9190903,8.087538,0.27602538,0.081427,-0.0359375,77.65138135,12.84063858,4.16
152145412202,0.16378632,-1.5523545,11.979912,0.06898804,0.06203308,-0.20813903,77.65134719,12.84064445,3.75
152145412224,-0.051211547,-0.8715622,9.443379,0.09178619,-0.1232193,-0.21937561,77.65134719,12.84064445,3.75
152145412246,-0.87505645,-1.4289353,9.021634,-0.019322205,-0.028195191,0.016532898,77.65134719,12.84064445,3.75
152145412268,-0.0109939575,-1.2737885,10.369693,-0.1259552,3.5705566E-4,-0.0012054443,77.65134719,12.84064445,3.75
152145412290,0.6299423,-0.72887266,9.00799,0.16934204,-0.110809326,-0.18635407,77.65134719,12.84064445,3.75
152145412312,-0.54274595,-1.1090714,10.357483,-0.042547606,-0.15640107,-0.124406435,77.65131463,12.84065291,3.59
152145412334,-0.9790894,-0.791478,8.8181305,-0.03381195,0.0047210692,0.20588227,77.65131463,12.84065291,3.59
152145412356,0.16498108,-0.9685272,10.25178,-0.00211792,0.085688785,0.1999176,77.65131463,12.84065291,3.59
152145412378,0.056642152,-1.2828888,5.3647323,-0.38077086,0.04136963,0.1084137,77.65131463,12.84065291,3.59
152145412400,0.054969788,-0.96828616,14.607191,0.2338913,0.07290039,-0.1297348,77.65129014,12.84065758,3.04
152145412422,-0.2891968,-0.18298951,5.5578246,0.30910188,0.060809325,-0.05548706,77.65129014,12.84065758,3.04
152145412444,0.36046904,-0.42277068,13.162532,-0.21469574,0.007974243,-0.052609254,77.65129014,12.84065758,3.04
152145412466,-0.41692963,0.88231355,7.639226,0.0039520264,-0.008540344,-0.08408966,77.65129014,12.84065758,3.04
152145412416,0.12667541,0.21241455,11.507057,-0.029603576,-0.19225006,-0.121586606,77.65129014,12.84065758,3.04
152145412438,-0.96568453,0.21612549,8.458163,-0.072906494,-0.16860047,0.11751862,77.65127629,12.84067341,2.59
152145412460,-1.0753342,-0.33813173,10.828542,0.013539123,-0.00582428,0.35193175,77.65127629,12.84067341,2.59
152145412482,0.106803894,-0.073451236,9.05336,-0.028646851,0.12803192,0.31651154,77.65127629,12.84067341,2.59
152145412505,0.33353576,-1.0398757,10.209401,0.024673462,0.13330384,0.053494263,77.65127629,12.84067341,2.59
152145412527,0.3972214,-1.0103058,9.833275,-0.10640869,-0.005557251,-0.04243622,77.65127975,12.84072408,3.62
152145412549,-0.71764374,-0.6328598,9.209822,0.06728516,-0.003742981,0.0027328492,77.65127975,12.84072408,3.62
152145412571,-0.7020828,-1.1576706,9.641856,-0.06891022,0.1497635,0.1893692,77.65127975,12.84072408,3.62
152145412593,0.8894714,-0.8115845,9.266327,0.005392456,0.14150849,-0.06906738,77.65127975,12.84072408,3.62
152145412615,0.41338348,-1.1287003,10.46211,0.009280396,-0.015942384,-0.29597014,77.65127975,12.84072408,3.62
152145412637,-0.93922883,-1.5275757,7.791139,-0.24398956,-0.08305816,-0.15083161,77.65127461,12.84074194,1.48
152145412659,-0.177388,-1.281929,11.602948,0.025740052,-0.048432924,-0.04158325,77.65127461,12.84074194,1.48
152145412681,-0.69765013,0.012617493,7.753549,0.3783447,0.035722353,0.043267824,77.65127461,12.84074194,1.48
152145412703,-0.22491303,-0.060404968,11.512926,0.05886841,-0.016853333,-0.018572997,77.65127461,12.84074194,1.48
152145412725,-0.596138,0.51036835,8.602173,-0.0022216798,0.0077072144,0.0019348145,77.65127461,12.84074194,1.48
152145412747,-0.0229599,-0.07931976,10.647656,0.042999268,-0.021855164,-0.054263305,77.65125554,12.8407382,1.51
152145412769,-0.4247101,0.18356629,8.70285,-0.098265074,-0.091207884,-0.0528244,77.65125554,12.8407382,1.51
152145412791,-0.43943483,-0.060646057,9.81783,-0.048085023,-0.062286377,0.07096863,77.65125554,12.8407382,1.51
152145412813,-0.3441437,0.113291934,9.421826,-0.0118637085,-0.02329712,0.07378998,77.65125554,12.8407382,1.51
152145412835,-0.30883026,-0.05980835,9.9423275,0.0606308,-0.031980895,0.100631714,77.65123301,12.84073206,1.53
152145412857,-0.60379946,-0.08267212,9.9379015,-0.02859497,0.01484375,0.12529603,77.65123301,12.84073206,1.53
152145412879,-0.3884384,-0.029521178,9.605349,-0.0028121949,0.1272873,0.17093964,77.65123301,12.84073206,1.53
152145412901,-0.0121887205,-0.31287384,10.040613,-0.02587738,0.1337326,-0.0025405884,77.65123301,12.84073206,1.53
152145412923,0.09914398,-0.8826965,9.762525,-0.0040908814,0.060546875,-0.10214539,77.65123301,12.84073206,1.53
152145412945,0.16605988,-0.9654175,10.123331,0.01700287,-0.085827634,-0.18614045,77.65120681,12.84072275,1.51
152145412967,-0.7678009,-0.910231,9.733195,0.029786682,-0.13040772,-0.07300873,77.65120681,12.84072275,1.51
152145412989,-0.5551941,-1.0763855,9.397051,-0.016822815,-0.026864624,0.13333741,77.65120681,12.84072275,1.51
152145413011,-0.25963134,-0.87180483,9.610013,-0.045425415,0.077539064,0.12321778,77.65120681,12.84072275,1.51
152145413033,0.26099396,-0.8067993,9.782156,0.02243805,0.042008974,-0.022938538,77.65117692,12.84071392,1.61
152145413055,-0.29266968,-0.68481445,10.153735,-0.047128297,-9.765625E-4,-0.041639708,77.65117692,12.84071392,1.61
152145413077,-0.49079132,-0.317305,9.600078,0.020570373,-0.0069992067,-0.0060546873,77.65117692,12.84071392,1.61
152145413099,-0.48887482,-0.5465485,10.231908,0.032981873,0.0050445558,0.023457337,77.65117692,12.84071392,1.61
152145413121,-0.2258728,-0.48573762,9.446249,-0.038020324,0.013461304,-0.005418396,77.65117692,12.84071392,1.61
152145413143,-0.2850113,-0.58796996,9.969981,4.91333E-4,0.014793396,-0.020332336,77.65114595,12.84070881,1.73
152145413165,-0.40064391,-0.6108368,9.680881,-0.020974731,0.00589447,0.008221435,77.65114595,12.84070881,1.73
152145413188,-0.12208557,-0.5103943,10.059647,0.022277832,0.01708374,-0.023579407,77.65114595,12.84070881,1.73
152145413210,-0.64270324,-0.31311494,9.812202,0.05759125,-0.0042800903,-0.038012695,77.65114595,12.84070881,1.73
152145413231,-0.37802428,-0.5733658,9.90893,-0.014213562,0.08723297,0.057489015,77.65111483,12.84070832,1.81
152145413254,0.29546967,-0.41091767,9.826329,0.007894898,0.03934784,-0.12750092,77.65111483,12.84070832,1.81
152145413276,-0.31876525,-0.31838074,10.053061,0.031973265,-0.08540039,-0.18214722,77.65111483,12.84070832,1.81
152145413298,-0.64964753,-0.24583283,9.487073,0.0016098022,-0.08955689,-0.029705811,77.65111483,12.84070832,1.81
152145413320,-0.28572387,-0.32460633,9.961123,0.0026748658,-0.088919066,-0.010105896,77.65111483,12.84070832,1.81
152145413342,-0.8162842,-0.22668305,9.551954,-0.00675354,-0.06266022,0.09419098,77.65108418,12.84071,1.89
152145413364,-0.5374786,-0.32257232,9.799036,-0.003930664,0.035568237,0.1651886,77.65108418,12.84071,1.89
152145413386,-0.082458496,-0.2168686,9.906174,-0.008670044,0.08462067,0.0849762,77.65108418,12.84071,1.89
152145413408,-0.0407959,-0.35932463,9.67765,-6.271362E-4,0.041532896,-0.023258973,77.65108418,12.84071,1.89
152145413430,-0.4368042,-0.32736206,9.862485,-0.0073394775,-0.005718994,-0.031306457,77.65106229,12.84071364,0.73
152145413452,-0.32595214,-0.26606902,9.89169,0.0083206175,-0.0025756836,-0.0024871826,77.65106229,12.84071364,0.73
152145413474,-0.32403105,-0.58318174,9.866791,-0.0119750975,0.003979492,0.01791687,77.65106229,12.84071364,0.73
152145413496,-0.31350097,-0.5847397,9.811487,-0.013945008,0.011808777,0.008435058,77.65106229,12.84071364,0.73
152145413518,-0.376828,-0.6876877,9.765875,-0.0029190064,0.037164308,0.029208373,77.65106229,12.84071364,0.73
152145413540,-0.18529205,-0.6724869,10.002782,0.010510254,0.037484743,-0.029493714,77.65103308,12.84071744,2.33
152145413562,-0.29817963,-0.5770752,9.765755,0.040545654,-0.021591187,-0.075035095,77.65103308,12.84071744,2.33
152145413584,-0.60846865,-0.69894105,9.935026,-0.011387634,-0.025532532,-0.0022735596,77.65103308,12.84071744,2.33
152145413606,-0.3451065,-0.58162534,9.357664,-0.048835754,0.0058410643,0.021751404,77.65103308,12.84071744,2.33
152145413628,-0.30583802,-0.8580383,9.754265,-0.028009033,0.026828002,-0.0027542114,77.65094297,12.84072529,4.55
152145413650,-0.22479859,-0.78752744,9.776049,0.01966858,-0.0024658204,-0.071144104,77.65094297,12.84072529,4.55
152145413672,-0.42315978,-0.9423126,10.053297,0.012953186,-0.0012420655,8.1787107E-4,77.65094297,12.84072529,4.55
152145413694,-0.2757904,-0.92615205,9.4802475,0.008963013,-0.0017181396,-0.01585846,77.65094297,12.84072529,4.55
152145413716,-0.42842406,-0.9333374,9.93371,0.0076828003,-0.010298157,-0.03764496,77.65094297,12.84072529,4.55
152145413738,-0.5985321,-0.95368654,9.618754,-0.012774658,0.040945433,0.043803405,77.65081094,12.84075741,4.51
152145413760,-0.22419739,-0.8139847,9.735829,0.0014511108,0.06342621,-0.012980652,77.65081094,12.84075741,4.51
152145413782,-0.06952973,-0.7689682,9.798437,0.019508362,0.019477844,-0.110133365,77.65081094,12.84075741,4.51
152145413804,-0.37970123,-0.63250124,9.848478,0.01077118,-0.03186951,-0.10108032,77.65081094,12.84075741,4.51
152145413826,-0.4688858,-0.71079254,9.679804,-0.0037200928,-0.02526703,-0.04105072,77.65077507,12.84076762,4.25
152145413849,-0.39155275,-0.70995635,9.810888,0.0052337646,-0.02116394,-0.050212096,77.65077507,12.84076762,4.25
152145413870,-0.25855255,-0.8367294,9.884148,-2.0141601E-4,-0.028730774,-0.029971313,77.65077507,12.84076762,4.25
152145413893,-0.412381,-0.9159775,9.695607,-0.009414673,-0.031285096,-0.023687745,77.65077507,12.84076762,4.25
152145413915,-0.47331542,-0.92040557,9.761806,-0.012454224,-0.0088623045,0.029740905,77.65077507,12.84076762,4.25
152145413937,-0.34390563,-0.8750351,9.734035,0.0021972656,0.006324768,0.009768677,77.65074365,12.8407746,3.9
152145413959,-0.36737213,-0.9148987,9.810048,0.009707642,0.02795105,0.017756652,77.65074365,12.8407746,3.9
152145413981,-0.29842073,-1.1006882,9.851825,-0.015596008,0.07125397,0.015679931,77.65074365,12.8407746,3.9
152145414003,0.41039124,-1.2705581,9.92437,0.0039016723,0.0025405884,-0.14134522,77.65074365,12.8407746,3.9
152145414025,-0.3452255,-1.7934555,9.641861,0.03852234,-0.045506287,-0.14140014,77.65074365,12.8407746,3.9
152145414047,-0.16769409,-2.3372986,9.967229,-0.017565917,-0.053549193,-0.05522003,77.65070993,12.84078382,3.8
152145414069,-0.29039764,-2.224533,9.387831,-0.014903259,-0.06910248,-0.025447082,77.65070993,12.84078382,3.8
152145414091,-0.7098633,-2.1018233,9.965553,0.03224182,-0.023880005,0.05637207,77.65070993,12.84078382,3.8
152145414113,-0.35575715,-1.9706284,9.566202,0.0076828003,0.014578247,0.15725403,77.65070993,12.84078382,3.8
152145414135,0.2096344,-1.6129318,9.892889,0.01615448,-0.011523438,0.06425476,77.65068971,12.84079387,2.43
152145414157,-0.30332488,-1.4945374,9.639102,-0.0151168825,0.034184266,0.06420288,77.65068971,12.84079387,2.43
152145414179,0.20269318,-1.2587097,9.897196,-0.012081909,0.019158935,0.002253723,77.65068971,12.84079387,2.43
152145414201,0.28158265,-0.67020875,9.720146,0.010238647,-0.041726686,-0.15886994,77.65068971,12.84079387,2.43
152145414223,-0.21162415,-0.8769531,9.844048,0.024729919,-0.07198028,-0.17868653,77.65068971,12.84079387,2.43
152145414245,-0.8466919,-0.70564425,9.665199,0.0026748658,0.002168274,0.08609314,77.65068102,12.84079969,1.35
152145414267,0.1691742,-0.6797897,9.913358,-0.015492248,-0.04550781,0.09509277,77.65068102,12.84079969,1.35
152145414289,-0.37048036,-0.750296,9.47151,-0.0062744142,-0.07400207,0.07544251,77.65068102,12.84079969,1.35
152145414311,-0.6664063,-0.91562045,9.751752,-0.017086793,-0.022602845,0.2533966,77.65068102,12.84079969,1.35
152145414333,-0.28177795,-0.9551193,9.861165,-0.064013675,0.04424896,0.44892272,77.65066565,12.84080932,1.23
152145414355,-0.13752747,-0.9170548,7.6753783,-0.2658798,0.048721313,0.376326,77.65066565,12.84080932,1.23
152145414377,0.12847137,-1.4310882,13.325933,-0.11397095,0.074604794,0.2988266,77.65066565,12.84080932,1.23
152145414399,0.079148866,-1.5396668,8.833455,0.16433564,0.14316101,0.10548401,77.65066565,12.84080932,1.23
152145414421,1.1236222,0.21133728,10.049228,0.18835601,0.044145204,-0.11546326,77.65066565,12.84080932,1.23
152145414444,-0.42578888,1.4706863,9.600436,0.15874329,-0.0753357,-0.5558945,77.65065614,12.84081328,1.26
152145414465,-1.3772446,-1.4255798,9.352877,0.3465988,0.09654846,-0.14390412,77.65065614,12.84081328,1.26
152145414487,-0.027389526,0.9201431,11.220709,-0.36442107,0.13351746,-0.02911682,77.65065614,12.84081328,1.26
152145414509,0.939505,1.0493057,9.060905,0.08715363,-0.003477478,-0.3786896,77.65065614,12.84081328,1.26
152145414531,-0.2273056,0.48295745,10.293915,0.006190491,-0.14319153,-0.3158905,77.65063936,12.84081377,1.74
152145414554,-0.6968155,-0.47807464,8.9235935,0.061799623,-0.11235352,-0.24334869,77.65063936,12.84081377,1.74
152145414576,-0.5569946,-0.9070007,10.327436,-0.03658142,-0.1263092,0.02457733,77.65063936,12.84081377,1.74
152145414598,-1.0955673,-0.72838897,9.495572,-0.018899536,-0.012271118,0.18159485,77.65063936,12.84081377,1.74
152145414620,-0.5707611,-0.022338867,9.685191,9.719849E-4,0.09964295,0.3117172,77.65063936,12.84081377,1.74
152145414642,0.61030734,0.2501236,10.164391,0.008163452,0.12840423,0.0648407,77.65062633,12.84081413,1.82
152145414664,0.29211578,-0.36937866,9.935745,1.6784668E-4,-0.0024139404,-0.17921905,77.65062633,12.84081413,1.82
152145414686,-0.69501954,-0.9139404,9.977762,0.009013367,-0.031019593,-0.14315796,77.65062633,12.84081413,1.82
152145414708,-0.73559874,-0.7649063,9.618152,-0.033172607,0.029441833,0.048968505,77.65062633,12.84081413,1.82
152145414730,-0.40065002,-0.76226807,10.060364,0.006246948,0.09884033,0.028140258,77.65059973,12.84081805,2.7
152145414752,0.22507629,-0.40936127,9.658379,0.016471863,0.05282135,-0.12206574,77.65059973,12.84081805,2.7
152145414774,-0.30667877,-0.7452682,9.28835,-0.04451599,-0.0050765993,-0.19541016,77.65059973,12.84081805,2.7
152145414796,0.092199706,0.41376647,9.424223,0.18105468,-0.10462952,-0.3015625,77.65059973,12.84081805,2.7
152145414818,-0.4634964,0.5691513,10.272131,0.13663635,-0.18601532,-0.11114655,77.65059973,12.84081805,2.7
152145414840,-0.63216555,-0.6815826,9.9293995,-0.11333618,-0.23741455,-0.0109588625,77.65057124,12.84083254,3.11
152145414862,-1.1247772,-0.20166168,9.624617,0.07751312,0.02720337,0.3395218,77.65057124,12.84083254,3.11
152145414884,0.037609864,0.23216859,9.998831,-0.0736023,0.07295837,0.25951537,77.65057124,12.84083254,3.11
152145414906,-0.18253784,0.31692353,9.522268,0.026911926,0.12664947,0.13307342,77.65057124,12.84083254,3.11
152145414928,0.36777344,0.015971374,9.895281,-0.025823975,0.03700409,-0.005947876,77.65053846,12.84084408,3.55
152145414950,-0.11897125,0.15136413,9.762283,0.0045394897,-0.05855713,-0.11530151,77.65053846,12.84084408,3.55
152145414972,-0.71022034,0.05667267,9.678846,0.017378235,-0.09269867,0.025849914,77.65053846,12.84084408,3.55
152145414994,-0.70064545,-0.057415772,9.94173,0.0034729005,-0.030804444,0.14846191,77.65053846,12.84084408,3.55
152145415016,-0.52874297,-0.13929597,9.698961,-0.009790039,0.05191803,0.18569794,77.65053846,12.84084408,3.55
152145415038,-0.26298523,-0.33956757,9.844767,-0.014689636,0.10544739,0.11965027,77.65050824,12.84084822,3.42
152145415060,-0.041038513,-0.44982606,9.8556595,-0.0122940065,0.12233124,0.027078247,77.65050824,12.84084822,3.42
152145415082,0.17539826,-0.63106537,9.988894,0.0012374878,0.049624633,-0.097990416,77.65050824,12.84084822,3.42
152145415104,-0.2841751,-0.72826993,9.697401,0.023347473,-0.022122193,-0.12488709,77.65050824,12.84084822,3.42
152145415126,-0.46733093,-0.7518509,9.893247,-0.0032363893,-0.020954896,-0.044036865,77.65050824,12.84084822,3.42
152145415149,-0.33852386,-0.7950684,9.62055,-0.0030792237,0.008348083,-0.0118637085,77.65046805,12.84085942,3.93
152145415170,-0.30320588,-0.62005156,9.661252,-0.011604309,-0.0044952394,-0.03253174,77.65046805,12.84085942,3.93
152145415192,-0.3130188,-0.5782715,9.791971,-0.0038772584,-0.03709259,-0.04600525,77.65046805,12.84085942,3.93
152145415214,-0.4992935,-0.47771302,9.927007,2.761841E-4,-0.03400421,-0.006748962,77.65046805,12.84085942,3.93
152145415237,-0.33337402,-0.5525406,9.478808,0.00256958,-0.031021118,0.016107177,77.6504272,12.84087185,3.48
152145415258,-0.52024233,-0.38266754,10.7961,0.06270142,-0.01375885,0.041619875,77.6504272,12.84087185,3.48
152145415281,-0.58105165,-0.45305634,9.286319,0.106062315,0.033436585,0.07938232,77.6504272,12.84087185,3.48
152145415303,-0.17822723,-0.75173646,9.606662,-0.19456482,0.0149002075,0.03006134,77.6504272,12.84087185,3.48
152145415325,-0.3455841,-0.12109528,9.379572,0.023451233,0.07023926,0.018556213,77.6504272,12.84087185,3.48
152145415347,0.03114624,-0.9924744,10.459955,0.017747497,0.03391266,-0.0657135,77.65039337,12.84088274,3.95
152145415369,-0.32834625,-0.8599518,8.97579,-0.07392273,-0.002041626,-0.07987976,77.65039337,12.84088274,3.95
152145415391,-0.18109894,-0.96613616,10.314748,0.03266754,-0.026223755,-0.08888092,77.65039337,12.84088274,3.95
152145415413,-0.3498947,-1.091951,9.543337,0.00448761,-0.03981018,-0.053300478,77.65039337,12.84088274,3.95
152145415435,-0.29410857,-1.07639,9.954424,0.0313385,-0.046307374,-0.024699401,77.65035346,12.84089554,3.91
152145415457,-0.42662963,-1.1447433,9.794126,-0.00398407,-0.032298278,0.030595398,77.65035346,12.84089554,3.91
152145415479,-0.25173035,-1.3851227,9.675734,-0.014588928,-0.019197082,0.03613434,77.65035346,12.84089554,3.91
152145415501,-0.3409195,-1.3513626,9.631923,-0.015489196,-0.01136322,0.042155456,77.65035346,12.84089554,3.91
152145415523,-0.23078308,-1.4051148,9.748874,-0.007077026,0.0023269653,0.05408325,77.65035346,12.84089554,3.91
152145415545,-0.23198089,-1.5810868,9.662569,-9.5062255E-4,0.007443237,0.06036682,77.65032142,12.84089708,3.18
152145415567,-0.10592346,-1.7666382,9.777847,-0.011924744,0.009202575,0.046147157,77.65032142,12.84089708,3.18
152145415589,-0.12567596,-1.6196365,9.754865,0.0029418946,-0.0049743652,-0.0060028075,77.65032142,12.84089708,3.18
152145415611,-0.4199249,-1.4976501,9.619832,0.0066741942,0.01825409,0.054193117,77.65032142,12.84089708,3.18
152145415633,-0.076237485,-1.2852829,9.790054,-0.010215759,0.034553528,0.050195314,77.65029052,12.84090366,2.14
152145415655,-0.023558045,-0.6726074,9.877683,0.008589173,0.002381897,-0.050215147,77.65029052,12.84090366,2.14
152145415677,-0.23868255,-0.77208406,9.687823,-0.0016921997,0.005630493,-0.032688905,77.65029052,12.84090366,2.14
152145415699,0.08501587,-0.78585356,9.882589,0.015513611,-0.030859375,-0.10922699,77.65029052,12.84090366,2.14
152145415721,-0.48349458,-0.7394043,9.917908,0.0076858522,-0.046308897,-0.08115997,77.65029052,12.84090366,2.14
152145415743,-0.38125914,-0.753891,9.6064205,0.01732483,-0.037358094,0.028305054,77.65026821,12.84091457,2.02
152145415765,-0.6564743,-0.74957883,9.569913,-0.07796936,-0.0100891115,0.12684326,77.65026821,12.84091457,2.02
152145415787,-0.6646118,-0.9910385,10.056172,0.030636597,0.09149017,0.24561615,77.65026821,12.84091457,2.02
152145415809,0.38273773,-0.7425171,9.579367,-0.020233154,0.06470337,0.13626862,77.65026821,12.84091457,2.02
152145415831,0.43265533,-0.4142685,9.765877,0.08657074,-0.042149354,-0.21021576,77.65025141,12.84091813,2.0
152145415854,-1.0893447,-1.4240296,10.28446,-0.02720642,-0.027612304,-0.03380432,77.65025141,12.84091813,2.0
152145415875,-0.67191315,-1.1431854,9.293498,-0.04638214,0.11972046,0.20529632,77.65025141,12.84091813,2.0
152145415897,0.59785765,-1.2613418,10.198149,0.016738892,0.060655214,-0.032687377,77.65025141,12.84091813,2.0
152145415920,0.575473,-1.7276154,9.567393,0.0154067995,-0.11618652,-0.38230896,77.65025141,12.84091813,2.0
152145415941,-0.82394564,-1.114096,9.969742,0.039750673,-0.052059937,-0.3294754,77.65023577,12.84091644,1.81
152145415964,-0.64809114,-0.9814606,9.404233,0.0052856444,-0.009762573,-0.058200072,77.65023577,12.84091644,1.81
152145415986,-0.2437088,-1.0789077,9.98303,0.007896423,0.013034058,0.052645873,77.65023577,12.84091644,1.81
152145416008,-0.30500183,-0.7821411,9.703865,-0.012773132,0.012341308,0.022180175,77.65023577,12.84091644,1.81
152145416030,-0.3121826,-0.67907107,9.8452425,0.0026763915,0.021185303,0.05776062,77.65022322,12.84092487,1.26
152145416052,-0.2932709,-0.886171,9.803706,-0.0019058228,-0.034591675,0.023722839,77.65022322,12.84092487,1.26
152145416074,-0.2151001,-0.8379288,9.97872,0.01194458,-0.014878845,0.027555848,77.65022322,12.84092487,1.26
152145416096,-0.15991211,-0.72515714,9.535075,-0.022306824,-0.008596802,0.01743927,77.65022322,12.84092487,1.26
152145416118,-0.2574768,-0.48310393,8.076528,-0.21283111,-0.028518677,-6.790161E-4,77.65022322,12.84092487,1.26
152145416140,-0.31253967,-1.2192047,11.8975525,-0.22028962,-0.00395813,0.04332428,77.65022507,12.84092695,0.89
152145416162,0.037251282,-1.3477722,9.745768,0.024780273,0.016552735,0.06431122,77.65022507,12.84092695,0.89
152145416184,0.008523559,-0.45580903,10.009005,0.09546509,-0.009817505,-0.049684145,77.65022507,12.84092695,0.89
152145416206,-0.29949492,-0.26822203,10.169299,0.13541107,-0.024629211,-0.092349246,77.65022507,12.84092695,0.89
152145416228,-0.3701233,1.5535294,9.461096,0.33600157,-0.030488586,0.0066192625,77.65021783,12.84092863,0.81
152145416250,-0.6388763,-0.11355896,9.26848,0.5485748,0.079400636,0.08401489,77.65021783,12.84092863,0.81
152145416272,-0.34246978,1.5337738,10.711347,-0.34210053,-0.10729065,0.131102,77.65021783,12.84092863,0.81
152145416294,-0.9040329,-0.92303926,9.945081,-0.19269867,0.03269043,0.23022766,77.65021783,12.84092863,0.81
152145416316,-0.5318527,-0.21698609,8.93437,-0.12899475,0.15652771,0.40333253,77.65021783,12.84092863,0.81
152145416338,0.82195586,-0.71378326,10.2179,0.05402527,0.079185486,-0.0030715943,77.65020612,12.84092964,0.81
152145416360,0.21358642,-0.8199692,10.04995,-0.026568603,-0.05445709,-0.2477661,77.65020612,12.84092964,0.81
152145416382,-0.6441406,-0.20872803,9.51293,0.016101073,-0.049768068,-0.15439454,77.65020612,12.84092964,0.81
152145416404,-1.3679078,-0.017906189,9.714398,0.011412049,-0.012268066,0.10505676,77.65020612,12.84092964,0.81
152145416426,-0.8097,-0.051548768,9.594568,-0.038819887,0.034129333,0.2607971,77.65020612,12.84092964,0.81
152145416448,-0.62917787,0.35726318,9.884506,-0.077171326,0.07311706,0.23043518,77.65019227,12.84092872,1.93
152145416470,0.5408737,0.17470703,10.058929,0.0043273927,0.0401474,-0.041156005,77.65019227,12.84092872,1.93
152145416492,-0.48372954,0.38036957,9.315885,0.08715515,0.015057373,-0.16579437,77.65019227,12.84092872,1.93
152145416514,-0.43273315,-0.21027985,10.429548,0.031439207,-0.0025238036,-0.09633789,77.65019227,12.84092872,1.93
152145416536,-0.05995331,0.1812912,9.595647,-0.025186157,-0.071554564,-0.20382538,77.65016877,12.84093254,2.65
152145416559,-1.1167572,0.013934326,9.839978,0.03005371,-0.07278137,-0.04451294,77.65016877,12.84093254,2.65
152145416580,-0.77234954,0.050686646,9.556742,-0.039245605,0.022460938,0.18127747,77.65016877,12.84093254,2.65
152145416603,0.02085266,-0.08662262,9.856975,-0.003930664,0.116687015,0.051045228,77.65016877,12.84093254,2.65
152145416625,-0.147818,-0.057292175,9.71093,-0.0049438477,0.099853516,-0.08164062,77.65016877,12.84093254,2.65
152145416646,-0.043673705,-0.19986725,9.942927,0.019506836,0.07455444,-0.14395753,77.65013976,12.84093787,3.29
152145416669,0.08573761,-0.15150452,9.909528,0.036820985,-0.024517823,-0.28782043,77.65013976,12.84093787,3.29
152145416691,-0.2358078,-0.18035583,9.720866,0.033572387,-0.13930511,-0.2329605,77.65013976,12.84093787,3.29
152145416713,-0.8699158,-0.15007019,9.760248,0.022601318,-0.18559113,-0.09777832,77.65013976,12.84093787,3.29
152145416735,-0.9741821,-0.08746338,9.738101,0.0041107177,-0.1150711,0.14521638,77.65010878,12.84094484,3.28
152145416805,-0.8059906,-0.16347656,9.730682,-0.026091004,0.053355407,0.26591033,77.65010878,12.84094484,3.28
152145416827,-0.07156372,0.010821533,10.0491085,-0.0062194825,0.139003,0.12492065,77.65010878,12.84094484,3.28
152145416849,-0.059355162,-0.009529114,9.870264,0.016203308,0.09937592,-0.0324234,77.65010878,12.84094484,3.28
152145416871,-0.19079742,-0.0519043,9.944841,0.020840455,0.049734496,-0.08552857,77.65010878,12.84094484,3.28
152145416893,-0.059832763,-0.055496216,9.994641,0.025154114,-0.025587464,-0.15221405,77.65007239,12.84095423,4.31
152145416915,-0.57147825,-0.120858766,9.773656,0.012640381,-0.108091734,-0.09932251,77.65007239,12.84095423,4.31
152145416937,-0.9010407,-0.14025421,9.852069,3.829956E-4,-0.077252194,0.070170596,77.65007239,12.84095423,4.31
152145416959,-0.50527495,-0.2295578,9.758095,-0.014103699,-0.0015625,0.10303192,77.65007239,12.84095423,4.31
152145416981,-0.36641234,-0.27205354,9.762525,-0.008509827,0.04206543,0.06851349,77.65003633,12.84096483,3.63
152145417004,-0.29997405,-0.29228362,9.761087,-0.011601257,0.06603088,0.026119996,77.65003633,12.84096483,3.63
152145417025,-0.18421325,-0.33609924,9.681,-0.024438476,0.07711029,-0.016604614,77.65003633,12.84096483,3.63
152145417047,0.024923706,-0.2276413,9.871101,-0.0011581421,0.031040955,-0.10070801,77.65003633,12.84096483,3.63
152145417069,-0.40196687,-0.1966385,9.6156435,0.014395142,-0.05738678,-0.12137298,77.65003633,12.84096483,3.63
152145417091,-0.8091019,-0.11535339,9.933229,0.0012878418,-0.07288513,-0.028587341,77.64999787,12.84097665,4.82
152145417114,-0.44733733,-0.26164246,9.762283,0.004750061,-0.02047577,0.05328369,77.64999787,12.84097665,4.82
152145417135,-0.26322174,-0.27755737,9.611452,-0.021829223,-0.029159546,-0.007971192,77.64999787,12.84097665,4.82
152145417157,-0.37060088,-0.1600006,10.113037,0.06936493,-0.016156007,0.019300843,77.64999787,12.84097665,4.82
152145417179,-0.38700408,-0.31646425,9.965671,-0.0035049438,-0.018287659,0.0374115,77.64995414,12.84099047,4.87
152145417202,-0.28058013,-0.13821717,9.593137,-0.0281662,-0.020848084,0.015516663,77.64995414,12.84099047,4.87
152145417224,-0.40244445,-0.2987488,9.85171,0.023452759,-0.018077087,0.03852997,77.64995414,12.84099047,4.87
152145417246,-0.5587891,-0.2100418,9.777246,-0.0062759398,0.00499115,0.061590575,77.64995414,12.84099047,4.87
152145417268,-0.37622833,-0.19914703,9.98159,-0.005049133,0.042970277,0.06377716,77.64995414,12.84099047,4.87
152145417290,-0.26011047,-0.37799835,9.967349,0.02408905,0.047817994,0.011312867,77.6498993,12.8409986,5.16
152145417312,-0.2870453,-0.5017792,9.769946,0.008959961,0.044570923,0.009817505,77.6498993,12.8409986,5.16
152145417334,-0.24023743,-0.66422427,9.57889,-0.014157104,0.038122557,-0.01441803,77.6498993,12.8409986,5.16
152145417356,-0.28728637,-0.5962265,9.709132,-0.019166565,0.017720032,-0.049841307,77.6498993,12.8409986,5.16
152145417378,-0.36593628,-0.681105,9.811725,-0.008668518,0.017298888,-0.015379334,77.64984582,12.84100546,5.36
152145417400,-0.32176208,-0.5795883,9.737622,-0.009735107,0.013459777,-0.03641968,77.64984582,12.84100546,5.36
152145417422,-0.23952027,-0.44371796,9.712843,0.009811401,-0.009501648,-0.06507416,77.64984582,12.84100546,5.36
152145417444,-0.34163207,-0.49255982,9.724337,0.011676026,-0.054937743,-0.060282897,77.64984582,12.84100546,5.36
152145417466,-0.50108796,-0.4588028,9.646765,-0.002758789,-0.051582336,-5.6762696E-4,77.64984582,12.84100546,5.36
152145417488,-0.29721984,-0.4049347,9.650835,0.0055007935,-0.00443573,0.023617554,77.64979696,12.84102056,5.62
152145417510,-0.25220641,-0.31454927,9.884268,0.0036865235,-0.039224245,-0.027684022,77.64979696,12.84102056,5.62
152145417532,-0.50216675,-0.24715424,9.730441,8.590698E-4,-0.05280304,0.018499756,77.64979696,12.84102056,5.62
152145417554,-0.45451966,-0.3722519,9.774015,-0.009098816,-0.0040649413,0.06947632,77.64979696,12.84102056,5.62
152145417576,-0.34306794,-0.36339417,9.798436,0.017591858,0.020544434,0.053388976,77.64979696,12.84102056,5.62
152145417598,-0.4673294,-0.3648285,9.81364,0.0037948608,0.035621643,0.03272705,77.64974739,12.84103228,5.43
152145417620,-0.41573182,-0.3243683,9.874333,-0.013414001,0.06629944,0.038208008,77.64974739,12.84103228,5.43
152145417642,-0.2584366,-0.30760956,9.9760895,4.898071E-4,0.047229003,-0.032211304,77.64974739,12.84103228,5.43
152145417664,-0.24059448,-0.44144592,9.6595745,-0.0032913208,0.02192993,-0.0431839,77.64974739,12.84103228,5.43
152145417686,-0.4426712,-0.16527405,9.934309,-0.005102539,0.007710266,-0.038546752,77.64969091,12.8410444,5.67
152145417709,-0.45212555,-0.2673828,9.880321,-0.012345886,0.01383667,-0.022517394,77.64969091,12.8410444,5.67
152145417730,-0.1913971,-0.23697662,9.951904,0.025791932,-4.943848E-4,-0.04904022,77.64969091,12.8410444,5.67
152145417752,-0.25891113,-0.26068115,9.956098,0.016899109,-0.06516266,-0.07498016,77.64969091,12.8410444,5.67
152145417774,-0.60200197,-0.2647522,9.680165,0.0074188234,-0.09445496,-0.016334534,77.64969091,12.8410444,5.67
152145417796,-0.5868012,-0.2706131,9.781201,-0.0068572997,-0.03304596,0.07363129,77.64963708,12.84105707,6.07
152145417819,-0.11909332,-0.3522583,9.821304,-0.01378479,-0.0049713133,0.027767945,77.64963708,12.84105707,6.07
152145417840,-0.33301392,-0.18490295,9.8161545,0.0123703005,-0.014028931,0.0022018433,77.64963708,12.84105707,6.07
152145417862,-0.15907593,-0.38578033,9.823935,-0.0026489259,-0.053178407,0.0075790407,77.64963708,12.84105707,6.07
152145417884,-0.4870804,-0.28486174,9.662085,-0.017300416,-0.04550781,0.05280609,77.64958253,12.84107078,6.17
152145417907,-0.68604124,-0.31443176,9.863916,0.03527832,0.0493042,0.13312836,77.64958253,12.84107078,6.17
152145417929,-0.07408142,-0.39894563,9.812326,-0.03440094,0.11940155,0.06697235,77.64958253,12.84107078,6.17
152145417951,0.0068496703,-0.7730423,9.693932,-0.0057403566,0.116313174,-0.018309021,77.64958253,12.84107078,6.17
152145417973,0.24219513,-0.95919496,9.832075,-0.00488739,-0.022494506,-0.13687591,77.64958253,12.84107078,6.17
152145417995,-0.6622192,-0.93537295,9.697283,0.019296264,-0.11597595,-0.05367279,77.64952497,12.84108727,6.1
152145418017,-0.82214963,-0.9775116,9.8019085,-0.009841919,-0.00625,0.11506958,77.64952497,12.84108727,6.1
152145418039,-0.20516205,-0.9997757,9.845842,-0.016822815,0.118177794,0.079754636,77.64952497,12.84108727,6.1
152145418061,0.008042907,-0.830983,9.776649,0.018228149,0.083128355,-0.062091064,77.64952497,12.84108727,6.1
152145418083,0.03845062,-0.9567993,9.782515,-0.038604736,-0.021107484,-0.11716614,77.6494706,12.84110146,6.1
152145418105,-0.5727951,-0.74646604,9.847641,0.089604184,-0.04790344,-0.053089906,77.6494706,12.84110146,6.1
152145418127,-0.25699615,-0.8486999,10.249868,-0.014424133,-0.05776062,-0.0147918705,77.6494706,12.84110146,6.1
152145418149,-0.49210662,-0.85456544,9.404711,-0.053253174,-0.067770384,-6.744385E-4,77.6494706,12.84110146,6.1
152145418171,-0.46529388,-0.8810242,9.679802,-0.027420044,-0.022283936,0.05104828,77.6494706,12.84110146,6.1
152145418193,-0.29207307,-0.74227905,10.026607,0.029203797,0.032743834,0.04737549,77.64942618,12.8411172,5.74
152145418215,-0.098379515,-0.8397217,10.0582075,0.04347687,0.04222412,0.011737061,77.64942618,12.8411172,5.74
152145418237,0.05305481,-0.72144926,9.979558,-0.010005188,-0.007901001,-0.048402406,77.64942618,12.8411172,5.74
152145418259,-0.50144196,-0.74610597,9.750194,0.015834045,-0.08747864,-0.06401215,77.64942618,12.8411172,5.74
152145418281,-1.1764923,-0.94818115,9.704706,-0.0059020994,0.03668518,0.18079376,77.64937682,12.84112978,5.62
152145418303,0.27332002,-0.7567581,9.659215,-0.04878082,0.19966888,0.0883316,77.64937682,12.84112978,5.62
152145418325,0.46689302,-0.8813797,9.9973955,0.035273742,0.010527039,-0.2196457,77.64937682,12.84112978,5.62
152145418347,-0.5591461,-1.0255127,9.80969,0.023077393,-0.1361618,-0.12552795,77.64937682,12.84112978,5.62
152145418369,-0.892659,-1.0525696,9.488268,-0.054478455,-0.02659607,0.09642639,77.64937682,12.84112978,5.62
152145418391,-0.012426758,-0.7644226,9.818667,0.010931397,0.03535614,0.041775513,77.64932448,12.84114324,5.45
152145418414,-0.42135924,-1.161142,9.140752,-0.13346863,-0.048223875,-0.04488983,77.64932448,12.84114324,5.45
152145418435,-0.2034851,-0.10877228,9.1883955,0.25024566,0.04408417,0.06047516,77.64932448,12.84114324,5.45
152145418457,-0.17858429,-0.97212064,11.446607,-0.15466614,-0.005557251,-0.035401918,77.64932448,12.84114324,5.45
152145418479,-0.43979645,-0.037779234,8.834772,0.03894806,-0.002253723,-0.027897645,77.64928034,12.84115736,4.98
152145418501,-0.33121794,-0.33035126,10.512747,0.007359314,-0.0395401,-2.4871825E-4,77.64928034,12.84115736,4.98
152145418523,-0.25615844,-0.09823456,9.314207,0.0064575197,-0.038157653,-0.0055786134,77.64928034,12.84115736,4.98
152145418545,-0.3004486,-0.21124268,10.298349,0.024835205,-0.052430727,0.028408814,77.64928034,12.84115736,4.98
152145418567,-0.68460387,-0.15354308,9.480606,-0.011759949,-0.017489623,0.07954254,77.64928034,12.84115736,4.98
152145418589,-0.4427887,-0.29240417,9.902226,0.02243805,0.04968109,0.11299439,77.64923711,12.84116687,4.66
152145418612,-0.37646943,-0.18394622,9.598284,-0.0119750975,0.09932251,0.074855044,77.64923711,12.84116687,4.66
152145418634,-0.23018035,-0.41918182,9.6847105,-0.08004608,0.10768738,4.974365E-4,77.64923711,12.84116687,4.66
152145418656,-0.1709259,-0.22213593,9.857097,-0.0011062622,0.114608765,-0.060333252,77.64923711,12.84116687,4.66
152145418678,0.09519501,-0.467659,9.978002,0.050723266,0.018521119,-0.16164093,77.64919244,12.84118225,4.98
152145418700,-0.45787048,-0.4540146,10.280269,-0.032691956,-0.08348389,-0.15184021,77.64919244,12.84118225,4.98
152145418722,-0.2695694,-0.50153655,9.699915,0.089978024,-0.08705292,-0.06124115,77.64919244,12.84118225,4.98
152145418744,-0.6773041,-0.49303588,9.814959,-0.030296326,-0.11501465,-0.018519592,77.64919244,12.84118225,4.98
152145418766,-0.49785766,-0.28569946,9.840933,0.017749023,-0.027607728,0.08342896,77.64919244,12.84118225,4.98
152145418788,-0.2571167,-0.46263275,9.888937,-0.011387634,-0.025961304,0.020207215,77.64914888,12.84119647,5.11
152145418810,-0.25352782,-0.77519685,9.740496,-0.0138900755,-0.034002684,0.03490906,77.64914888,12.84119647,5.11
152145418832,-0.36043245,-0.94051516,9.709013,-0.0067565916,0.004084778,0.06734619,77.64914888,12.84119647,5.11
152145418854,-0.3486969,-0.9040085,9.90079,0.0031539917,0.035725404,0.068409726,77.64914888,12.84119647,5.11
152145418876,-0.22778778,-0.8928757,9.686511,0.0043792725,0.039294433,0.045077514,77.64909936,12.84121471,5.22
152145418898,-0.24933472,-1.0398757,9.738462,-0.012081909,0.05623169,0.01743927,77.64909936,12.84121471,5.22
152145418920,-0.15631561,-0.8397232,9.898636,-4.272461E-5,0.051278688,-0.008666992,77.64909936,12.84121471,5.22
152145418942,-0.051216125,-0.89861906,9.811127,-0.007235718,0.007333374,-0.06917419,77.64909936,12.84121471,5.22
152145418964,-0.22000885,-0.9120285,9.814959,-0.003024292,-0.049502563,-0.08499451,77.64909936,12.84121471,5.22
152145418986,-0.4198044,-0.8647415,9.55686,0.0050735474,-0.0850296,-0.016070556,77.6490494,12.84123011,5.21
152145419008,-0.43512726,-0.96613616,9.881396,-0.012452697,-0.056375124,0.060154725,77.6490494,12.84123011,5.21
152145419030,-0.30667725,-0.99654233,9.706139,-0.0019073486,-0.01322937,0.09312592,77.6490494,12.84123011,5.21
152145419052,-0.27519378,-1.0101883,9.905699,0.0015029907,0.013990784,0.07948609,77.6490494,12.84123011,5.21
152145419074,-0.24969634,-0.93501127,9.850151,0.009176636,0.026724244,0.05972748,77.64900891,12.84123515,4.45
152145419096,-0.015179443,-1.040953,9.908093,0.018763732,0.021769714,0.03245697,77.64900891,12.84123515,4.45
152145419118,-0.26621705,-1.0200058,9.807175,-0.01687622,-0.00433197,0.01040802,77.64900891,12.84123515,4.45
152145419140,-0.29889527,-1.2606232,9.784788,9.689331E-4,-0.016481018,0.023617554,77.64900891,12.84123515,4.45
152145419162,-0.53987277,-1.3613021,9.635631,0.0032608032,0.025233459,0.08865051,77.64900891,12.84123515,4.45
152145419184,-0.30512086,-1.2231522,9.7612095,-0.034347534,0.07428894,0.107666016,77.64896366,12.84124027,4.02
152145419206,0.021334838,-1.1423523,10.088018,0.049391173,0.08068085,-0.018678283,77.64896366,12.84124027,4.02
152145419228,0.09998016,-1.3012054,9.580208,-0.003237915,0.042118836,-0.068748474,77.64896366,12.84124027,4.02
152145419250,0.5903168,-1.4994491,9.858171,-0.033280946,-0.110594176,-0.26768798,77.64896366,12.84124027,4.02
152145419272,-0.87111205,-1.2128586,9.515442,0.030215453,-0.18505707,-0.15343323,77.64896366,12.84124027,4.02
152145419295,-0.766008,-1.4283386,9.863922,0.0165802,-0.12305756,0.16492614,77.64894552,12.8412468,3.31
152145419317,-0.24000092,-1.3073136,9.711168,0.013063049,-0.072192386,0.26346284,77.64894552,12.8412468,3.31
152145419339,-0.8957718,-1.0658554,9.956575,0.004170227,0.023898315,0.37925872,77.64894552,12.8412468,3.31
152145419361,-0.2142578,-1.0645386,9.6983595,0.013595581,0.13841705,0.44093323,77.64894552,12.8412468,3.31
152145419383,0.32767028,-1.2595475,9.708654,-0.3569092,0.13314056,0.2204773,77.6489315,12.84124181,2.22
152145419405,0.87618256,-1.2466125,10.258005,0.13871308,0.16094665,-0.06768341,77.6489315,12.84124181,2.22
152145419427,0.28445435,-0.17197724,8.1300335,0.32721406,0.0036575317,-0.32425538,77.6489315,12.84124181,2.22
152145419449,-0.31636962,-0.6727234,12.620723,0.14654084,-0.07932892,-0.25591737,77.6489315,12.84124181,2.22
152145419471,-1.1707458,0.12466278,7.4427843,-0.16249695,0.014312744,-0.029492188,77.6489315,12.84124181,2.22
152145419493,-0.18049927,0.3411026,11.185397,0.11485138,0.0839798,0.07309876,77.6489136,12.84124249,2.24
152145419515,0.5652939,0.35894316,9.253636,-0.08520965,0.013938904,-0.22784576,77.6489136,12.84124249,2.24
152145419537,-0.37503052,-0.13534698,10.804842,0.046992492,-0.037835695,-0.1981781,77.6489136,12.84124249,2.24
152145419559,-0.41226196,0.35750276,9.569435,-0.07253571,-0.05232086,-0.18795165,77.6489136,12.84124249,2.24
152145419581,-0.18134002,0.09186401,9.353595,-0.02747345,-0.11815643,-0.16520843,77.64888975,12.84124588,2.62
152145419603,-1.1499176,-0.14671631,9.780721,-0.09021912,-0.06681366,0.07527771,77.64888975,12.84124588,2.62
152145419625,-0.08592834,-0.7220459,9.825252,0.13588715,0.07125549,0.22063904,77.64888975,12.84124588,2.62
152145419647,0.30768126,-0.89766234,10.748698,-0.026567077,0.03993225,-0.0028045655,77.64888975,12.84124588,2.62
152145419669,-0.39131165,-0.36662444,10.069101,-0.011651611,0.0032852173,-0.09133148,77.64888975,12.84124588,2.62
152145419691,-0.82681733,-0.49076384,10.033907,-0.0029708862,0.05825653,0.04295044,77.64886326,12.84124794,2.89
152145419713,-0.24286957,-0.9336914,9.650116,-0.047605895,0.1410263,0.042044066,77.64886326,12.84124794,2.89
152145419735,0.73696136,-0.6631485,10.59032,-0.029335022,0.043344118,-0.2730133,77.64886326,12.84124794,2.89
152145419757,-0.28752288,-0.14300843,8.99219,0.014021302,-0.08193817,-0.3267029,77.64886326,12.84124794,2.89
152145419779,-0.68843234,-1.0249115,10.323725,-0.0037719726,-0.10276642,-0.20158692,77.64884381,12.84125214,1.48
152145419801,-0.72195435,-0.722525,9.22227,0.10536957,-0.06388245,0.0028396607,77.64884381,12.84125214,1.48
152145419823,-0.3069168,-0.66530454,10.09041,0.07639313,-0.020524597,0.044496156,77.64884381,12.84125214,1.48
152145419845,-0.3072769,-0.9062805,9.578769,-0.08287048,-0.00630188,0.039700318,77.64884381,12.84125214,1.48
152145419867,-0.3053604,-0.92686766,9.387593,-0.057141114,0.027363587,0.062283326,77.64884381,12.84125214,1.48
152145419889,-0.12423706,-0.6200501,9.853857,-0.01857605,0.046484374,0.037890624,77.64882881,12.84125615,1.55
152145419912,0.0887268,-0.775798,9.2997265,0.0065612793,0.0029647828,-0.077804565,77.64882881,12.84125615,1.55
152145419934,-0.72171324,-0.30569154,10.25453,0.04091797,-0.0067810058,-0.062091064,77.64882881,12.84125615,1.55
152145419956,-0.34570312,-0.7792679,10.241124,-0.08542633,0.0117553715,0.023031617,77.64882881,12.84125615,1.55
152145419977,-0.053610228,-0.7668198,9.400638,-0.13996582,0.019906616,-0.029278565,77.648812,12.84126195,1.63
152145420000,-0.41992036,-0.8108673,11.059227,0.111601256,0.013563538,-0.07141113,77.648812,12.84126195,1.63
152145420021,-0.5583099,0.6179916,8.486656,0.3093155,0.09101105,0.013122559,77.648812,12.84126195,1.63
152145420044,0.50029147,-0.6564438,10.690039,-0.042648315,-0.041456603,-0.18960266,77.648812,12.84126195,1.63
152145420066,-0.37623137,0.36887208,10.082028,-0.12899017,-0.0611145,-0.20078735,77.648812,12.84126195,1.63
152145420088,-0.80335844,-0.39319763,9.298169,0.06712036,-0.06601105,-0.03630829,77.64879451,12.8412691,1.66
152145420110,-0.40112764,-0.057415772,10.08634,0.10499573,-0.04950104,-0.04046478,77.64879451,12.8412691,1.66
152145420132,-0.817598,0.24449615,8.585176,-0.10102997,-0.023136903,0.09381409,77.64879451,12.8412691,1.66
152145420154,-0.495578,-1.1738297,9.883787,-0.059220888,0.066618346,0.1810089,77.64879451,12.8412691,1.66
152145420176,0.030308533,-1.2362015,8.908873,-0.24420318,0.1088562,0.091471866,77.64879451,12.8412691,1.66
152145420198,0.5366867,-0.9963058,10.253215,0.09791412,0.0788147,-0.19706115,77.64877677,12.8412771,1.69
152145420220,-0.1593109,-0.9184891,8.795265,0.09578399,-0.009552002,-0.20765838,77.64877677,12.8412771,1.69
152145420242,-0.010031128,-1.7552612,12.5822935,-0.24681091,-0.03314972,-0.13351898,77.64877677,12.8412771,1.69
152145420264,-0.78563535,-0.6862503,8.700337,0.20172425,-0.025958251,-0.18070832,77.64877677,12.8412771,1.69
152145420286,-0.5190414,-0.58222044,10.083826,0.46830446,-0.040126037,-0.09649964,77.64875836,12.841286,1.74
152145420308,-0.22634888,0.52617645,8.663946,-0.21538849,-0.09200592,-0.0107421875,77.64875836,12.841286,1.74
152145420330,-0.08712463,0.37306517,9.927961,0.097695924,-0.032829285,0.041671753,77.64875836,12.841286,1.74
152145420352,-0.4315338,0.79743654,10.099988,-0.09953918,-0.11602936,0.015570069,77.64875836,12.841286,1.74
152145420374,-0.28895873,0.5119278,9.814,0.09082947,-0.12113953,0.0852417,77.64875836,12.841286,1.74
152145420396,-0.4723541,0.46464387,10.003021,-0.045423888,-0.13158265,0.20929566,77.64874104,12.84129722,1.76
152145420419,-0.54909056,0.61943054,9.673101,0.046672057,-0.07528076,0.2597824,77.64874104,12.84129722,1.76
152145420440,-0.33852386,0.4673996,10.157087,0.020358276,-0.054670714,0.28370056,77.64874104,12.84129722,1.76
152145420462,-0.73069304,0.30088195,9.779043,0.018232727,0.035723876,0.35012206,77.64874104,12.84129722,1.76
152145420484,-0.4215973,0.26065674,9.740376,-0.03796997,0.17650147,0.3671631,77.64872166,12.84130821,1.82
152145420506,-0.0378067,0.37749785,9.899355,-0.011550903,0.2660385,0.21190338,77.64872166,12.84130821,1.82
152145420528,0.20161895,0.3117737,9.989614,-0.013729858,0.23605041,-0.01329956,77.64872166,12.84130821,1.82
152145420550,0.122486874,0.25898132,9.815433,0.008430481,0.12254486,-0.1349533,77.64872166,12.84130821,1.82
152145420572,-0.33947754,0.107551575,9.847278,0.01588745,0.039720155,-0.1614273,77.64872166,12.84130821,1.82
152145420594,-0.048461914,-0.13270721,9.898157,0.019030761,-0.031072998,-0.153331,77.64869765,12.84131634,1.92
152145420616,-0.40998992,-0.7188141,9.610731,0.011994934,-0.12455139,-0.12169342,77.64869765,12.84131634,1.92
152145420639,-0.5431091,-0.89491117,9.79796,-0.0122940065,-0.122686766,-0.037641905,77.64869765,12.84131634,1.92
152145420661,-0.66317594,-0.86809385,9.840571,-0.004406738,-0.05946045,0.07176666,77.64869765,12.84131634,1.92
152145420682,-0.3714401,-0.9876846,9.680643,0.0029434203,0.03769684,0.09392395,77.64867071,12.84132363,2.07
152145420705,-0.4312973,-0.9681671,9.921979,-0.02555542,0.059640504,0.03741608,77.64867071,12.84132363,2.07
152145420727,-0.44877777,-0.983255,9.678368,-0.021723937,0.13085327,0.035279848,77.64867071,12.84132363,2.07
152145420749,0.40823364,-1.0543579,9.69752,-0.01048584,0.13873596,-0.072209165,77.64867071,12.84132363,2.07
152145420771,-0.021766663,-1.0350876,10.094241,0.032717895,0.0028045655,-0.26364136,77.64867071,12.84132363,2.07
152145420793,-0.4995285,-1.1961044,9.713324,0.028727721,-0.050834656,-0.15557098,77.6486517,12.84132898,0.45
152145420815,-0.28848267,-1.2682861,9.742292,0.007897949,-0.055522155,-0.0930893,77.6486517,12.84132898,0.45
152145420837,-0.44733733,-1.2142975,9.8278885,0.016899109,-0.052966308,-0.06678009,77.6486517,12.84132898,0.45
152145420859,-0.181102,-1.1129013,9.696922,0.005763245,-0.07309876,-0.09165039,77.6486517,12.84132898,0.45
152145420881,-0.5901535,-1.1360061,9.733197,-0.0016937256,-0.06548462,0.0053451536,77.64861646,12.8413387,4.04
152145420903,-0.25316924,-1.1322953,9.942447,0.011837768,-0.03262024,0.024629211,77.64861646,12.8413387,4.04
152145420925,-0.03277893,-1.087883,9.403755,-0.003929138,-0.06324615,-0.009838867,77.64861646,12.8413387,4.04
152145420947,-0.47714537,-1.1952636,9.90941,0.0041656494,-0.06633301,0.05493469,77.64861646,12.8413387,4.04
152145420969,-0.32451326,-0.8297836,9.707934,0.04145355,-0.037997436,0.07949066,77.64861646,12.8413387,4.04
152145420990,-0.62079465,-0.6407639,10.00027,-0.0061172484,1.4343261E-4,0.16998443,77.64854278,12.84136374,3.74
152145421012,-0.37395477,-0.27456817,9.683395,-0.0034500123,0.09181519,0.21019897,77.64854278,12.84136374,3.74
152145421034,0.08944855,-0.0655487,10.075323,-0.013946533,0.11295929,0.07949066,77.64854278,12.84136374,3.74
152145421056,0.12907104,-0.0011505127,9.729965,0.014875794,0.030400086,-0.09655304,77.64854278,12.84136374,3.74
152145421078,0.0086456295,0.11473236,10.074491,0.033784486,-0.07624207,-0.1501892,77.64843573,12.84139378,3.31
152145421100,-0.46038514,0.025669862,9.795326,0.014231873,-0.11512299,-0.054475404,77.64843573,12.84139378,3.31
152145421122,-0.53891754,-0.039694212,9.511012,-0.0029724122,-0.07411194,0.10431366,77.64843573,12.84139378,3.31
152145421144,-0.523352,-0.09847412,10.191809,-2.029419E-4,-0.016319275,0.14649658,77.64843573,12.84139378,3.31
152145421166,-0.36964875,-0.1245697,9.28979,-0.00206604,0.02102356,0.1761078,77.64843573,12.84139378,3.31
152145421189,-0.4139374,-0.2654724,9.675977,-0.05985718,0.087336734,0.14643708,77.64840061,12.84140368,4.0
152145421210,0.0020553588,-0.118946835,9.819746,-0.011811828,0.14235839,0.08188629,77.64840061,12.84140368,4.0
152145421232,0.18521576,-0.17975616,10.006134,0.013276672,0.112902835,-0.058470152,77.64840061,12.84140368,4.0
152145421254,-0.08042145,0.011180115,9.785149,0.037139893,-0.023190308,-0.16734008,77.64840061,12.84140368,4.0
152145421276,-0.7200348,-0.03969574,9.864397,-0.010910034,-0.096214294,-0.07146454,77.64835989,12.8414117,4.47
152145421298,-0.7340439,-0.10948791,9.587389,-0.012345886,-0.025265504,0.068675235,77.64835989,12.8414117,4.47
152145421320,-0.28668517,-0.19112854,9.947597,-0.012719726,0.018096924,0.026013184,77.64835989,12.8414117,4.47
152145421343,-0.1816986,-0.18861389,9.667114,0.027177429,6.7749026E-4,-0.01894989,77.64835989,12.8414117,4.47
152145421365,-0.4503296,-0.16802216,10.189049,0.0060302736,-0.01834259,-0.0024322509,77.64835989,12.8414117,4.47
152145421387,-0.36856842,-0.31167755,9.603071,0.010238647,-0.0025756836,0.023242187,77.64831926,12.84142363,4.79
152145421409,-0.32595214,-0.49890137,9.798197,-0.027738953,0.008294677,0.017863464,77.64831926,12.84142363,4.79
152145421431,-0.31709138,-0.6828995,9.595171,0.02393341,0.02603302,0.014134216,77.64831926,12.84142363,4.79
152145421453,-0.12244415,-0.8546845,10.037259,-0.021084595,0.0049377442,-0.018203735,77.64831926,12.84142363,4.79
152145421475,-0.22814941,-0.97475433,9.4375105,-0.0024429322,-0.020317078,-0.022834778,77.64827701,12.84143711,5.02
152145421497,-0.24227448,-0.8572022,10.108963,-0.014956665,-0.049449157,-0.024327088,77.64827701,12.84143711,5.02
152145421519,-0.26370087,-1.0417938,9.592296,0.0050704954,-0.068573,0.0066253664,77.64827701,12.84143711,5.02
152145421541,-0.61648864,-0.88377684,9.455704,-0.0141067505,-0.047531128,0.079063416,77.64827701,12.84143711,5.02
152145421563,-0.26286316,-1.0633423,9.7688675,-0.03855591,-0.0024658204,0.10580139,77.64827701,12.84143711,5.02
152145421585,-0.26154175,-0.8597153,9.55794,0.0039001466,0.027789306,0.08891754,77.64823501,12.84145024,4.81
152145421607,-0.064381406,-0.9787033,10.277397,0.029470826,0.045793153,0.05823364,77.64823501,12.84145024,4.81
152145421629,-0.18529359,-0.8358887,9.593257,-0.0060073854,0.021665955,0.010568237,77.64823501,12.84145024,4.81
152145421651,-0.35336304,-0.9182526,9.9282,0.029470826,0.02720337,0.031607054,77.64823501,12.84145024,4.81
152145421673,-0.32798767,-0.91502076,9.9359865,0.024890136,0.04509735,0.037623595,77.64823501,12.84145024,4.81
152145421695,-0.35049134,-0.997142,9.76803,-0.005741882,0.048562624,0.021168519,77.64819653,12.84146059,4.59
152145421717,-0.29721832,-0.9500931,9.325702,-0.035731506,0.06299744,0.006089783,77.64819653,12.84146059,4.59
152145421739,-0.28249663,-0.8927536,9.902105,-0.04132538,0.07285309,-0.05394287,77.64819653,12.84146059,4.59
152145421761,0.3355728,-0.8672546,9.860926,-0.0059020994,0.019532776,-0.14571229,77.64819653,12.84146059,4.59
152145421783,-0.27890015,-0.97056425,9.791255,0.016847229,-0.11043396,-0.23093566,77.64815975,12.84146799,4.02
152145421805,-0.8052719,-1.0577118,10.015353,0.019985963,-0.1053772,-0.026402283,77.64815975,12.84146799,4.02
152145421827,-0.25113067,-0.7693283,9.639822,0.084758,-0.09509583,0.008857727,77.64815975,12.84146799,4.02
152145421849,-0.55735016,-1.2322525,10.037619,-0.037594605,-0.057278443,0.08231201,77.64815975,12.84146799,4.02
152145421871,-0.45332488,-0.8212875,9.465164,-0.032054137,0.035725404,0.16210175,77.64815975,12.84146799,4.02
152145421893,-0.34163666,-0.7346161,9.730322,0.014872742,0.107896425,0.1410614,77.64812293,12.84147908,3.86
152145421915,-0.096824646,-0.21004334,9.883669,-0.011547851,0.122225955,0.031391907,77.64812293,12.84147908,3.86
152145421937,0.11159363,-0.12505035,9.940176,0.035168458,0.048135377,-0.1388443,77.64812293,12.84147908,3.86
152145421959,-0.28812408,-0.11331787,9.948914,0.035700988,-0.011097717,-0.11221466,77.64812293,12.84147908,3.86
152145421981,0.0611969,-0.07033996,9.927603,0.0224411,-0.1220993,-0.1916275,77.6480912,12.84147978,3.6
152145422004,-1.0557067,-0.11774902,9.440865,0.0034194947,-0.1384491,-0.012286377,77.6480912,12.84147978,3.6
152145422026,-0.7450577,-0.21207428,9.860327,-0.032965086,-0.033572387,0.17221984,77.6480912,12.84147978,3.6
152145422048,-0.4704422,-0.072976686,9.543932,-0.023104858,0.08526154,0.16721496,77.6480912,12.84147978,3.6
152145422070,-0.044866942,-0.9323761,10.065272,-0.039567567,0.11540832,0.05040741,77.6480912,12.84147978,3.6
152145422092,0.07268524,-0.73928225,9.4944935,-1.4648438E-4,0.08718109,-0.05239563,77.64805465,12.8414866,3.98
152145422114,0.059040833,-0.70791626,10.259199,0.036128234,0.015908813,-0.16153565,77.64805465,12.8414866,3.98
152145422136,-0.51054686,-0.37943268,9.903063,0.04385071,-0.044122316,-0.11737518,77.64805465,12.8414866,3.98
152145422158,-0.5733963,-0.54188234,9.781675,0.049230956,-0.054563902,-0.01473999,77.64805465,12.8414866,3.98
152145422180,-0.4751114,-0.4355774,9.721945,-0.047291566,-0.01834259,0.016905213,77.64801809,12.84149529,4.11
152145422202,-0.2789032,-0.49471435,9.588107,-0.032107543,0.012075806,0.023350526,77.64801809,12.84149529,4.11
152145422224,-0.25280458,-0.4026596,9.7080555,-0.008509827,0.02288971,-0.008773804,77.64801809,12.84149529,4.11
152145422246,-0.08832397,-0.5640274,10.009008,-0.010002136,-0.014454651,-0.060546875,77.64801809,12.84149529,4.11
152145422268,-0.40567628,-0.9091522,9.583677,0.023399353,-0.04806366,-0.035089113,77.64801809,12.84149529,4.11
152145422290,-0.5470581,-0.9532059,9.833629,0.0025115968,-0.021382142,0.038743593,77.64797883,12.84150353,4.2
152145422312,-0.1678131,-0.9827744,9.5598545,-0.016130066,0.027308654,0.05232544,77.64797883,12.84150353,4.2
152145422334,-0.23640442,-0.8089539,9.841891,-0.0023834228,0.006639099,-0.016923523,77.64797883,12.84150353,4.2
152145422356,-0.3744339,-0.7592743,10.109804,0.028192138,0.008026123,0.015093994,77.64797883,12.84150353,4.2
152145422378,-0.37503052,-1.1637802,9.801188,-0.033970643,0.02539215,0.018930053,77.64794486,12.84151266,3.95
152145422400,-0.3340927,-0.87587434,9.822261,-0.0049438477,0.049308777,0.019781495,77.64794486,12.84151266,3.95
152145422422,-0.2586731,-0.884256,10.200186,0.05040436,0.08067932,-0.016549682,77.64794486,12.84151266,3.95
152145422444,0.125,-0.84917605,9.521068,-0.009571838,0.025709534,-0.13564911,77.64794486,12.84151266,3.95
152145422466,-0.26741028,-0.9334564,10.15685,0.00725708,-0.039971925,-0.16366425,77.64794486,12.84151266,3.95
152145422488,-0.57614744,-0.882576,9.315886,-0.029496765,-0.035549928,-0.07476807,77.64791158,12.84152194,3.69
152145422510,-0.36509705,-0.87827146,10.065869,0.024890136,-0.029472351,-0.03807068,77.64791158,12.84152194,3.69
152145422532,-0.4954605,-0.82415926,9.697522,-0.028701782,-0.05456238,-0.02534027,77.64791158,12.84152194,3.69
152145422554,-0.56585234,-1.0164154,9.554708,-0.017677307,-0.016371155,0.037786864,77.64791158,12.84152194,3.69
152145422577,-0.21294098,-0.54547423,8.571289,-0.028587341,-0.04385376,-3.5400392E-4,77.64787919,12.84153244,3.49
152145422599,-0.49474183,-0.3747635,11.60941,0.08688507,-0.121463016,0.0068878173,77.64787919,12.84153244,3.49
152145422620,-1.0495987,1.6784668E-4,8.86039,0.20018005,-0.057807922,0.14426117,77.64787919,12.84153244,3.49
152145422643,-0.8677597,-0.21626893,10.483057,-0.14566803,-0.018232727,0.30362242,77.64787919,12.84153244,3.49
152145422665,-0.4500885,0.07558594,8.789403,0.02909546,0.22976379,0.32529908,77.64787919,12.84153244,3.49
152145422687,0.36681518,-0.51518404,10.731216,-0.068273924,0.22757873,0.021217346,77.64785052,12.84153902,3.48
152145422709,0.30013734,-0.15748902,9.253998,0.02845459,0.09617615,-0.23300934,77.64785052,12.84153902,3.48
152145422731,0.10177918,-1.0253922,10.39962,0.041664124,-0.08268585,-0.31338653,77.64785052,12.84153902,3.48
152145422753,-1.0256577,-0.7768723,9.333005,0.0024108887,-0.15826568,-0.15109405,77.64785052,12.84153902,3.48
152145422775,-0.88404083,-1.0091156,9.792811,-0.013623047,-0.12306061,0.0671875,77.64785052,12.84153902,3.48
152145422797,-0.9720291,-0.7180939,9.289429,0.05093689,0.03588562,0.20167542,77.64781921,12.84154148,3.27
152145422819,0.022288512,-1.1440232,10.062396,-0.048455812,0.09133454,0.11171265,77.64781921,12.84154148,3.27
152145422841,-0.114897154,-0.68708956,9.808016,-0.066992186,0.080149844,-0.027043153,77.64781921,12.84154148,3.27
152145422863,0.3146225,-0.7447891,10.961304,0.18302765,0.0032348633,-0.17335662,77.64781921,12.84154148,3.27
152145422885,-0.49773407,-1.2587067,8.589847,-0.002279663,-0.124765016,-0.20249328,77.64779269,12.8415487,3.2
152145422907,-0.9325226,-0.97427523,11.863556,-0.07519684,-0.03677063,0.029954528,77.64779269,12.8415487,3.2
152145422929,-0.37790528,0.7627243,8.431107,0.36529693,0.028001403,0.10271454,77.64779269,12.8415487,3.2
152145422951,-0.096466064,-0.277919,11.392375,0.2243042,-0.017591858,-0.024539184,77.64779269,12.8415487,3.2
152145422973,-0.4882782,0.7383011,6.9075575,-0.3394409,-0.09626617,0.0017227173,77.64779269,12.8415487,3.2
152145422995,-0.28034362,-0.67117006,9.984587,-0.48554078,-0.0840683,0.026173402,77.64777084,12.84155499,2.99
152145423017,-0.16613618,0.5984818,7.808017,-0.39957124,-0.06857147,0.06990204,77.64777084,12.84155499,2.99
152145423039,-0.22036591,-0.050590515,12.303251,0.29621276,0.035084534,0.06505585,77.64777084,12.84155499,2.99
152145423061,-0.70746917,0.059181213,9.6318,0.500531,0.07956085,0.10335235,77.64777084,12.84155499,2.99
152145423083,-0.10771637,-0.4908844,10.627429,-0.16633148,-0.01588745,0.072883606,77.64774235,12.84155803,3.84
152145423105,-0.43201447,0.5684326,8.3741255,-0.007286072,0.06917419,0.08923797,77.64774235,12.84155803,3.84
152145423127,-0.32307738,-0.14228669,10.063477,-0.08835296,0.043556213,0.018554688,77.64774235,12.84155803,3.84
152145423149,-0.35456085,0.3701889,9.5870285,-0.02081604,0.08931122,0.012005615,77.64774235,12.84155803,3.84
152145423171,-0.19869843,-0.43964845,10.405368,0.09977722,0.09261169,-0.034661867,77.64774235,12.84155803,3.84
152145423193,-0.08916321,-0.341008,9.846918,-0.06673279,4.0893554E-4,-0.12696686,77.64769934,12.84156067,4.32
152145423215,-0.28752136,-0.6667374,9.8329115,0.06499634,-0.050570678,-0.1114151,77.64769934,12.84156067,4.32
152145423237,-0.5756668,-0.74945986,9.542018,-0.035093687,-0.0655365,-0.020970155,77.64769934,12.84156067,4.32
152145423259,-0.30727538,-0.7522095,9.742534,-0.009579468,-0.025534058,0.011897278,77.64769934,12.84156067,4.32
152145423281,-0.58979493,-0.70313567,9.52574,0.0054473877,0.012606812,0.03709259,77.64766104,12.84156727,4.58
152145423303,-0.47762603,-0.7002594,10.124049,-0.009043884,0.090586856,0.054348756,77.64766104,12.84156727,4.58
152145423325,0.22974701,-0.6544067,9.733912,0.017114257,0.11226501,-0.0397171,77.64766104,12.84156727,4.58
152145423347,0.09782715,-0.7501755,10.007093,0.01620636,0.0025939941,-0.22374725,77.64766104,12.84156727,4.58
152145423370,-0.33002013,-0.68266296,9.76492,0.042149354,-0.10052796,-0.1660614,77.64766104,12.84156727,4.58
152145423392,-0.56657106,-0.7536499,9.886904,0.026811218,-0.118693545,-0.053196717,77.64762171,12.84157639,4.39
152145423414,-0.6731125,-0.68577576,9.845723,0.0122619625,-0.08204498,0.04934082,77.64762171,12.84157639,4.39
152145423436,-0.34629974,-0.84247434,9.747679,-0.009307861,-0.019355774,0.11112976,77.64762171,12.84157639,4.39
152145423458,-0.08557129,-0.8703674,9.867391,-0.009736633,-0.020259093,0.023352051,77.64762171,12.84157639,4.39
152145423480,-0.4266266,-0.6845764,9.609896,0.010505676,-0.028625488,0.044923402,77.64758845,12.84159112,4.43
152145423502,-0.17739105,-0.8002151,9.977522,0.0052322387,-0.009870911,0.093070984,77.64758845,12.84159112,4.43
152145423524,-0.35180664,-0.8197281,9.561411,0.009066773,-0.015837098,0.032618713,77.64758845,12.84159112,4.43
152145423546,-0.5142578,-0.8451096,9.785869,-0.022842407,0.095329285,0.17515106,77.64758845,12.84159112,4.43
152145423568,0.97410583,-0.7604736,10.014873,-6.8054197E-4,-0.013973999,-0.08690949,77.64758845,12.84159112,4.43
152145423590,-0.5805756,-0.7744812,9.636589,0.02600708,-0.090516664,-0.08557739,77.64754934,12.84160263,4.43
152145423612,-0.37276,-1.0656143,9.836146,-0.021296691,-0.0671341,0.106600955,77.64754934,12.84160263,4.43
152145423634,-0.75259703,-0.7649002,9.827528,5.966186E-4,0.04025116,0.2193573,77.64754934,12.84160263,4.43
152145423656,-0.25687712,-0.7809448,9.693571,-0.027526855,0.19194642,0.25664216,77.64754934,12.84160263,4.43
152145423678,0.69278413,-0.6146652,7.779765,-0.04158325,0.16377106,-0.062193297,77.64752893,12.84161663,3.54
152145423700,0.31186828,-0.78477174,12.33354,0.12987061,0.014309692,-0.27807465,77.64752893,12.84161663,3.54
152145423722,-0.5294571,-1.218364,9.323187,0.08518066,-0.16524354,-0.19551544,77.64752893,12.84161663,3.54
152145423744,-1.3132004,-0.04962921,9.814598,-0.06449433,-0.14793244,0.079595946,77.64752893,12.84161663,3.54
152145423766,-0.8268204,-0.35190278,9.516879,0.046301268,0.14528656,0.30447236,77.64752893,12.84161663,3.54
152145423788,0.2521332,-0.27552336,10.138054,-0.08856659,0.19961548,0.101486206,77.64749416,12.8416268,3.79
152145423810,0.1417633,-0.31802368,9.57003,0.02728119,0.13181305,-0.17085572,77.64749416,12.8416268,3.79
152145423832,0.06442566,-0.27947694,10.216344,0.051519774,0.0074935914,-0.25389558,77.64749416,12.8416268,3.79
152145423854,-0.13680725,-0.28964844,9.886305,0.041775513,-0.09333801,-0.28920594,77.64749416,12.8416268,3.79
152145423876,-0.82801664,-0.23577881,9.792091,0.03223877,-0.20428467,-0.17575684,77.64745972,12.84163276,3.79
152145423899,-1.1839142,-0.2602005,9.708776,0.010931397,-0.11102142,0.11288605,77.64745972,12.84163276,3.79
152145423920,-0.5250305,-0.3366974,9.845121,-0.037223816,0.030612182,0.20135346,77.64745972,12.84163276,3.79
152145423942,-0.27387848,-0.26833954,9.752708,-0.013150024,0.10592651,0.110011294,77.64745972,12.84163276,3.79
152145423964,0.18162537,-0.20286408,9.972493,-0.005743408,0.061026,-0.067524716,77.64745972,12.84163276,3.79
152145423986,-0.16601714,-0.24786988,9.670588,0.0026245117,-0.02974243,-0.11343841,77.64743066,12.84165353,3.48
152145424009,-0.47942048,-0.24152985,10.032591,0.05951233,-0.095840454,-0.087286375,77.64743066,12.84165353,3.48
152145424030,-0.6166092,-0.33634034,9.561052,0.009544373,-0.120025635,0.027188111,77.64743066,12.84165353,3.48
152145424053,-0.7992859,-0.17568512,9.448885,-0.030723572,-0.018339539,0.18111572,77.64743066,12.84165353,3.48
152145424075,-0.24861602,-0.28510284,10.2873335,0.030108642,0.0668869,0.15730897,77.64743066,12.84165353,3.48
152145424097,-0.21102753,-0.19783477,9.824412,-0.01942749,0.038600158,0.033525087,77.64739296,12.84166464,3.96
152145424119,-0.17319946,-0.353096,9.428896,-0.03237305,0.03881531,0.014241028,77.64739296,12.84166464,3.96
152145424141,-0.17595215,-0.08027802,11.3824415,-0.022621155,-0.007952881,-0.027523804,77.64739296,12.84166464,3.96
152145424163,-0.42830354,-0.67918855,8.863385,0.12853698,-0.026013184,0.008590698,77.64739296,12.84166464,3.96
152145424185,-0.5286194,-0.09607544,10.290088,-0.07727508,-0.024090577,0.0554657,77.64735184,12.84167531,4.37
152145424207,-0.46289825,-0.52260745,9.355509,-8.4228517E-4,0.0497879,0.09030304,77.64735184,12.84167531,4.37
152145424229,-0.11454163,-0.10601501,10.235857,-0.065135196,0.0434494,0.023561096,77.64735184,12.84167531,4.37
152145424251,-0.43093568,-0.2245285,9.821541,0.075653076,0.03892212,-0.01676483,77.64735184,12.84167531,4.37
152145424273,-0.4095047,-0.2416443,9.7308,-0.0593277,0.01676483,-0.0069091795,77.64735184,12.84167531,4.37
152145424295,-0.31972504,-0.1753296,9.696683,0.04912567,0.038867187,-0.024278259,77.64730759,12.84168438,4.75
152145424317,-0.3486969,-0.2822296,10.019778,-0.027423095,-0.001828003,-0.053408813,77.64730759,12.84168438,4.75
152145424339,-0.39191285,-0.29575652,9.597684,0.004273987,-0.004759216,-0.032157898,77.64730759,12.84168438,4.75
152145424361,-0.25304717,-0.3247284,9.853864,0.0059783934,-0.048010252,-0.061451722,77.64730759,12.84168438,4.75
152145424383,-0.6397095,-0.17544708,9.706859,0.07809754,-0.038528442,0.008647156,77.64726675,12.84169577,4.87
152145424405,-0.4272232,-0.37213287,9.146138,-0.0783966,-0.03426666,0.026493836,77.64726675,12.84169577,4.87
152145424427,-0.49725494,-0.18011627,10.700572,-0.015646363,0.017720032,0.04992981,77.64726675,12.84169577,4.87
152145424449,-0.36868897,-0.5600769,9.877324,0.037139893,0.055116273,0.042897034,77.64726675,12.84169577,4.87
152145424471,-0.23508911,-0.07273712,9.537709,-0.016928101,0.032318115,-0.024061585,77.64726675,12.84169577,4.87
152145424493,-0.32595214,-0.26008606,10.024809,0.0306427,0.020491028,-0.043981932,77.64722127,12.84170537,5.36
152145424515,-0.45356292,-0.2823471,9.785031,-0.041004945,0.012075806,-0.028533936,77.64722127,12.84170537,5.36
152145424537,-0.27603608,-0.22704773,9.8873825,0.033676147,-0.016905213,-0.051599123,77.64722127,12.84170537,5.36
152145424559,-0.27004242,-0.41355133,9.973692,0.013438416,-0.052323915,-0.05644684,77.64722127,12.84170537,5.36
152145424581,-0.58883667,-0.39379883,9.644249,0.007951355,-0.08412476,-0.0051544188,77.64716584,12.8417168,5.54
152145424604,-0.38616332,-0.46909484,9.79125,0.0065612793,-0.05163269,0.056744386,77.64716584,12.8417168,5.54
152145424625,-0.5918274,-0.41546783,9.769827,0.00874939,3.036499E-4,0.08971405,77.64716584,12.8417168,5.54
152145424647,-0.54370576,-0.2609207,9.873375,-0.012242126,0.05111847,0.08747864,77.64716584,12.8417168,5.54
152145424669,-0.42243806,-0.30461273,9.831717,0.0038467408,0.12025452,0.073150635,77.64716584,12.8417168,5.54
152145424691,-0.025598144,-0.34459686,9.85985,-0.025401305,0.12739258,-0.041427612,77.64712106,12.84172475,5.26
152145424714,-0.084013365,-0.30964202,9.873613,0.0013427734,0.0396698,-0.12670287,77.64712106,12.84172475,5.26
152145424736,-0.26764983,-0.49531403,9.808851,0.02829895,-0.05930481,-0.13745728,77.64712106,12.84172475,5.26
152145424758,-0.5146149,-0.44132537,9.645925,0.012582397,-0.08167267,-0.054151915,77.64712106,12.84172475,5.26
152145424779,-0.5578278,-0.3985855,9.739899,0.009333801,-0.07427063,-0.0036087036,77.64707211,12.84173944,5.43
152145424802,-0.5426254,-0.26810303,9.690699,7.537842E-4,-0.04007416,0.034107972,77.64707211,12.84173944,5.43
152145424824,-0.47032318,-0.26654664,9.80143,-0.0073898314,-0.0125900265,0.03544159,77.64707211,12.84173944,5.43
152145424846,-0.5592667,-0.43306273,9.746366,0.0034194947,0.020973206,0.059036255,77.64707211,12.84173944,5.43
152145424868,-0.31313935,-0.532663,9.746722,-0.0164505,0.07987976,0.04332123,77.64707211,12.84173944,5.43
152145424890,-0.1208847,-0.32712096,9.880081,-0.013092041,0.052613832,-0.04094391,77.64702365,12.84175185,5.43
152145424912,-0.3658127,-0.7973404,9.902346,0.027127076,-3.8909912E-4,-0.05746002,77.64702365,12.84175185,5.43
152145424934,-0.09418945,-0.95356596,9.930117,-4.1503907E-4,-0.04172363,-0.065020755,77.64702365,12.84175185,5.43
152145424956,-0.5925476,-0.9255554,9.619232,0.0075775147,-0.06010132,-0.010159302,77.64702365,12.84175185,5.43
152145424978,-0.58117217,-0.92830503,9.858053,0.0019805909,0.001739502,0.059887696,77.64697475,12.84177448,5.16
152145425000,-0.13932343,-0.93417203,9.632399,-3.6315917E-4,0.03290405,0.016584778,77.64697475,12.84177448,5.16
152145425022,-0.3940689,-0.93213654,9.766353,-0.019804383,0.013034058,-0.018469239,77.64697475,12.84177448,5.16
152145425044,-0.28046417,-0.91202545,9.751752,0.004753113,0.0068527223,-0.016123962,77.64697475,12.84177448,5.16
152145425066,-0.23353425,-0.8581589,9.794124,0.008694458,0.02155609,-0.017138671,77.64697475,12.84177448,5.16
152145425088,0.030429076,-0.9098694,9.749118,0.0041656494,-0.041885376,-0.09218903,77.6469386,12.8417919,4.21
152145425110,-0.46648866,-0.92364043,9.80119,-0.0015838624,-0.0852951,-0.036843874,77.6469386,12.8417919,4.21
152145425132,-0.26382446,-0.87479246,9.964476,0.017166138,-0.07091522,0.034857176,77.6469386,12.8417919,4.21
152145425154,-0.44183046,-0.9955826,9.645567,1.7395019E-4,-0.048649598,0.064790346,77.6469386,12.8417919,4.21
152145425176,-0.29626006,-0.8832962,9.770185,-0.012295532,-0.024627686,0.08007202,77.64689466,12.84179944,4.58
152145425199,-0.41789246,-0.8015335,9.804064,0.0024108887,-0.013226318,0.10484161,77.64689466,12.84179944,4.58
152145425220,-0.585965,-0.8832962,9.752707,-0.0012649536,0.05202179,0.16487122,77.64689466,12.84179944,4.58
152145425242,-0.20911407,-0.87036896,9.725412,-0.021562194,0.10651092,0.12566833,77.64689466,12.84179944,4.58
152145425264,-0.067373656,-0.8679733,9.900671,-0.030296326,0.12717895,0.021322632,77.64689466,12.84179944,4.58
152145425286,0.12643738,-0.9339355,9.594333,-0.066410825,0.08957367,-0.08787079,77.6468671,12.84179796,3.13
152145425309,0.20891877,-0.6680542,10.266142,0.070803836,-0.05893097,-0.24942017,77.6468671,12.84179796,3.13
152145425330,-0.93048704,-0.48166505,9.712604,0.08949737,-0.07661285,-0.08190308,77.6468671,12.84179796,3.13
152145425352,-0.40735474,-0.17616577,9.353238,-0.02987213,0.0057342527,0.05823822,77.6468671,12.84179796,3.13
152145425374,-0.090594485,-0.09332428,9.8142395,-0.018952942,0.0033920289,-0.014631653,77.6468671,12.84179796,3.13
152145425397,-0.5036011,-0.25517273,9.719309,-0.13101807,-0.017219543,-0.043179322,77.64683211,12.84180444,4.15
152145425419,-0.053729247,0.29273683,10.505567,0.25130922,0.06699066,-0.0063201906,77.64683211,12.84180444,4.15
152145425441,-0.23496857,-1.0785415,9.295656,0.08182678,0.078656,-0.068164065,77.64683211,12.84180444,4.15
152145425463,-0.40615693,0.4055069,9.542737,-0.16750488,0.04999695,-0.049200438,77.64683211,12.84180444,4.15
152145425485,0.10333252,-0.2882126,9.749476,0.09871216,0.058522034,-0.10821686,77.64678013,12.84179332,4.37
152145425507,0.19275513,-0.30186462,9.624138,-0.01964569,-0.10686646,-0.21799469,77.64678013,12.84179332,4.37
152145425529,-0.59996796,-0.26750642,9.419192,0.033943176,-0.21648255,-0.16573945,77.64678013,12.84179332,4.37
152145425551,-1.3321136,-0.23087311,9.739179,-4.119873E-5,-0.15613708,0.12684174,77.64678013,12.84179332,4.37
152145425573,-0.88798827,-0.29300538,9.649999,-0.011547851,0.10427551,0.3222626,77.64678013,12.84179332,4.37
152145425595,0.27882844,-0.13438873,9.873853,-0.04009857,0.17538147,0.067237854,77.64674369,12.8418144,4.88
152145425617,0.031863403,-0.27181548,9.571707,-0.008137512,0.12962952,-0.045474242,77.64674369,12.8418144,4.88
152145425639,0.20029907,-0.2171051,10.038574,0.0153015135,-0.024145508,-0.21378632,77.64674369,12.8418144,4.88
152145425661,-0.7536789,-0.3259262,9.794487,0.046673585,-0.13429871,-0.11647339,77.64674369,12.8418144,4.88
152145425683,-0.7419449,-0.18370819,9.570391,-0.018684387,-0.10665436,0.052804567,77.64670696,12.84183642,4.8
152145425705,-0.4467392,-0.18861695,10.012716,0.03431549,-0.032461546,0.08534851,77.64670696,12.84183642,4.8
152145425727,-0.4365631,-0.34854737,9.608458,-0.039030455,-0.0026275634,0.07075348,77.64670696,12.84183642,4.8
152145425749,-0.20073242,-0.05214844,9.60331,-0.023316955,0.019482423,0.05610504,77.64670696,12.84183642,4.8
152145425771,-0.3368454,-0.6072403,9.93754,-0.022096252,0.025979614,0.022657776,77.64670696,12.84183642,4.8
152145425793,-0.17116699,-0.43845215,9.461336,-0.013891602,0.041905213,0.023831178,77.64666897,12.84185871,4.8
152145425815,-0.11358337,-0.5229675,10.011401,0.02004242,0.027259827,-0.006588745,77.64666897,12.84185871,4.8
152145425837,-0.14746246,-0.47137147,9.892647,0.016044617,-0.018289184,-0.04803009,77.64666897,12.84185871,4.8
152145425859,-0.38424835,-0.49650878,9.89456,0.020411681,-0.03821106,-0.008081054,77.64666897,12.84185871,4.8
152145425881,-0.3429474,-0.4908844,9.835788,0.006190491,-0.021273803,0.036772154,77.64664247,12.84189242,4.55
152145425904,-0.33720702,-0.54571074,9.842967,-0.0047302246,-0.019354248,0.04167328,77.64664247,12.84189242,4.55
152145425925,-0.33756256,-0.6005417,9.694766,-0.0052612303,0.010531616,0.053445436,77.64664247,12.84189242,4.55
152145425947,-0.14602509,-0.8325394,9.770905,-0.010803223,0.0127685545,0.026119996,77.64664247,12.84189242,4.55
152145425969,-0.11022949,-0.8563614,9.700276,-0.0043563843,-0.015625,-0.0017990113,77.64664247,12.84189242,4.55
152145425991,-0.30380708,-0.8437912,9.783473,8.605957E-4,-0.04199524,0.012960816,77.64662104,12.84191196,3.17
152145426013,-0.36330262,-0.8615097,9.723859,-0.010110473,-0.049983215,0.05749359,77.64662104,12.84191196,3.17
152145426035,-0.5724319,-0.7427505,9.752947,-0.007022095,8.8806154E-4,0.12582703,77.64662104,12.84191196,3.17
152145426057,-0.28561097,-0.8326599,9.820941,-0.007017517,0.051971436,0.12210083,77.64662104,12.84191196,3.17
152145426079,-0.2097168,-0.98421174,9.851827,-0.013360595,0.07679291,0.06537781,77.64656394,12.84190805,4.3
152145426102,-0.009197998,-1.1981369,9.698479,-0.016662598,0.08691406,0.026332092,77.64656394,12.84190805,4.3
152145426124,0.005648804,-1.109314,9.712367,0.011784363,0.031359863,-0.089732364,77.64656394,12.84190805,4.3
152145426101,-0.32930297,-1.2770249,9.799632,0.008694458,0.006321716,-0.05516968,77.64656394,12.84190805,4.3
152145426124,-0.09287262,-1.7496414,9.753069,-0.0068618776,0.0023269653,-0.06379242,77.64656394,12.84190805,4.3
152145426146,-0.05181122,-1.8116455,9.592653,-0.008621216,-0.01844635,-0.07337952,77.64652561,12.84191785,4.3
152145426168,-0.33852082,-1.8895843,9.488988,0.006246948,-0.007955933,-0.05292969,77.64652561,12.84191785,4.3
152145426190,-0.206839,-1.8722245,9.797481,0.0115737915,0.03013153,-0.0049407957,77.64652561,12.84191785,4.3
152145426212,0.13648987,-1.1531235,9.564644,-0.0113891605,-0.022547912,-0.08765717,77.64652561,12.84191785,4.3
152145426234,-0.28835908,-1.2827682,8.098195,-0.105982974,-0.06708069,-0.119032286,77.64651722,12.84193019,1.96
152145426256,-0.69022673,-0.9731995,14.064425,-0.10411682,-0.031817626,-0.0055206297,77.64651722,12.84193019,1.96
152145426278,-0.1721222,-1.1829284,8.007456,0.29067534,-0.014985656,0.04641571,77.64651722,12.84193019,1.96
152145426300,-0.36485443,0.82006073,9.438228,0.3844696,0.06704559,0.046092223,77.64651722,12.84193019,1.96
152145426322,0.04323578,-1.1126617,11.423498,-0.43462068,-0.102818295,-0.021665955,77.64651722,12.84193019,1.96
152145426344,-0.17786865,0.93498385,7.8822374,0.13088378,-0.044226073,-0.01601715,77.64650037,12.84193041,2.39
152145426366,-0.6661682,0.037992857,11.829198,-0.048402406,-0.036553957,0.091156006,77.64650037,12.84193041,2.39
152145426388,-0.5769852,0.755661,8.164393,0.012849426,0.002697754,0.12742615,77.64650037,12.84193041,2.39
152145426410,-0.22646943,0.30650634,11.25926,0.023446655,-0.030221557,0.149852,77.64650037,12.84193041,2.39
152145426432,-0.24706268,0.48571318,9.18265,-0.02608795,-0.011151123,0.11784057,77.64647831,12.84194416,2.32
152145426454,-0.16254577,0.2860321,9.765994,0.051893614,-0.027450562,0.10388641,77.64647831,12.84194416,2.32
152145426476,-0.6027206,0.17841491,10.073291,-0.0075531006,-0.013871765,0.1704605,77.64647831,12.84194416,2.32
152145426498,-0.2735153,0.4059845,9.5087385,0.018762207,0.008982849,0.16907807,77.64647831,12.84194416,2.32
152145426520,-0.6814911,0.13687745,10.121297,-0.029338073,0.042863466,0.20189056,77.64647831,12.84194416,2.32
152145426542,-0.07743225,-0.3043762,9.332883,-0.04499817,0.12185059,0.1913437,77.64642394,12.84194814,3.51
152145426564,0.17144775,-0.3803955,10.116987,-0.005369568,0.10278473,-0.022779847,77.64642394,12.84194814,3.51
152145426586,-0.3120636,-0.447908,9.60211,-0.010266113,0.06459503,-0.027682494,77.64642394,12.84194814,3.51
152145426608,-0.02715149,-0.43725586,9.75115,0.006614685,0.025231933,-0.06816254,77.64642394,12.84194814,3.51
152145426630,-0.25352478,-0.3564453,10.048033,0.03756561,-0.04140625,-0.13005829,77.64642394,12.84194814,3.51
152145426652,-0.64952546,-0.58162385,9.735827,0.001184082,-0.09403229,-0.025764465,77.64640391,12.84195718,3.41
152145426674,-0.6622192,-0.7488617,9.814837,0.009063721,-0.037413023,0.10851898,77.64640391,12.84195718,3.41
152145426696,-0.42303315,-0.862944,9.785271,-0.056289673,-0.018608093,0.0822052,77.64640391,12.84195718,3.41
152145426718,-0.3269104,-0.6686554,9.996678,0.009971619,0.003123474,0.08188629,77.64640391,12.84195718,3.41
152145426740,-0.30117035,-0.8476227,9.97896,0.016899109,0.0018493652,0.07128906,77.64637602,12.84196577,3.29
152145426763,-0.437764,-0.8082382,9.531484,-0.041003417,-0.0031051636,0.09232483,77.64637602,12.84196577,3.29
152145426785,-0.52371216,-0.83170164,9.81843,0.030747985,0.061665345,0.11885071,77.64637602,12.84196577,3.29
152145426807,-0.09503174,-0.6548874,10.041928,0.06595764,0.065553285,0.07810364,77.64637602,12.84196577,3.29
152145426829,-0.23341218,-0.39212495,9.805499,0.064143375,0.031411745,-0.051599123,77.64637602,12.84196577,3.29
152145426851,-0.5365219,-0.4043335,9.316365,-0.09219055,0.032211304,0.021806335,77.64633955,12.84196508,3.04
152145426873,-0.18457031,-0.30856627,10.445711,-0.032957457,0.09559174,-0.027415466,77.64633955,12.84196508,3.04
152145426895,0.044673156,-0.1853836,9.484079,-0.0018554687,0.041267395,-0.13873596,77.64633955,12.84196508,3.04
152145426917,0.116859436,-0.518898,9.80047,0.045713805,-0.032295227,-0.2724808,77.64633955,12.84196508,3.04
152145426939,-0.08545227,-0.42229003,8.585295,0.06510315,-0.07852936,-0.20020142,77.64628619,12.84192817,3.22
152145426961,-0.33803862,-0.3605179,10.435896,0.09621124,0.048028566,0.011683655,77.64628619,12.84192817,3.22
152145426983,-0.15320587,-0.070224,10.095558,-0.021931458,0.045689393,-0.07247467,77.64628619,12.84192817,3.22
152145427005,0.06478576,0.02111969,10.057131,0.024780273,-0.082901,-0.2397232,77.64628619,12.84192817,3.22
152145427027,-0.70028687,-0.14216614,9.405907,0.02861328,-0.15874633,-0.13261108,77.64628619,12.84192817,3.22
152145427049,-1.0375092,-0.24703369,10.002182,-0.03338623,-0.08194275,0.10643921,77.64625615,12.8419364,3.08
152145427071,-0.52167815,-0.059684753,9.472226,-0.032695007,0.035565186,0.19320679,77.64625615,12.8419364,3.08
152145427093,-0.2045639,-0.19723205,10.101062,0.025260925,0.08211975,0.10973968,77.64625615,12.8419364,3.08
152145427115,-0.29985505,-0.13210908,9.596727,-0.021665955,0.08100128,0.0061431886,77.64625615,12.8419364,3.08
152145427137,-0.12638855,-0.11427307,10.300501,-0.011920166,0.078337096,-0.030241394,77.64622354,12.8419351,3.16
152145427159,-0.10209198,-0.034309387,9.629766,0.03665924,0.042541504,-0.13932037,77.64622354,12.8419351,3.16
152145427181,-0.18588562,-0.28198853,9.909048,0.008161927,-0.04199066,-0.1812912,77.64622354,12.8419351,3.16
152145427203,-0.5276642,-0.119421385,9.616597,-0.012931824,-0.09999542,-0.1179657,77.64622354,12.8419351,3.16
152145427225,-0.6302551,-0.25194398,9.893728,-0.014691162,-0.100846864,-0.02571106,77.64622354,12.8419351,3.16
152145427247,-0.9516754,-0.17293091,9.204076,0.0027282715,-0.01013794,0.1339798,77.64618699,12.84192234,3.66
152145427269,0.0039733886,-0.31167907,10.216105,-0.050538637,0.010743713,0.077732846,77.64618699,12.84192234,3.66
152145427291,-0.33361512,-0.07249451,9.691896,0.031388856,-0.012966919,-0.010214234,77.64618699,12.84192234,3.66
152145427313,-0.106523134,-0.23146972,9.897436,0.0019302368,-0.036506653,0.0024703979,77.64618699,12.84192234,3.66
152145427335,-0.41585082,-0.058728028,9.933591,0.043424986,-0.027719116,0.038900755,77.64616036,12.84193653,3.37
152145427357,-0.5657303,-0.38039246,9.662686,0.10180054,-0.016368102,0.08891449,77.64616036,12.84193653,3.37
152145427379,-0.29063874,-0.31227416,10.098788,-0.12340088,-0.023612976,0.081726074,77.64616036,12.84193653,3.37
152145427401,-0.26405793,-0.21100464,9.195219,-0.0081359865,0.011756897,0.07613678,77.64616036,12.84193653,3.37
152145427423,-0.76936036,-0.13677979,10.446428,0.07543335,0.09474335,0.14111939,77.64616036,12.84193653,3.37
152145427445,-0.16302338,-0.37979126,9.578529,-0.048086546,0.15109405,0.088545226,77.6461239,12.84193815,3.78
152145427468,-0.0015335083,-0.10733032,9.745168,-0.043397523,0.10017548,-0.07711182,77.6461239,12.84193815,3.78
152145427490,-0.37635192,-0.29754943,9.86344,0.06148224,0.058576964,-0.11221466,77.6461239,12.84193815,3.78
152145427512,0.08381653,-0.18502045,9.912283,0.0065643312,-0.031980895,-0.18624726,77.6461239,12.84193815,3.78
152145427534,-0.76696473,-0.28629762,9.747322,0.024459839,-0.06793213,-0.10955353,77.64608712,12.84194462,4.51
152145427556,-0.35180664,-0.31970063,9.734632,0.016468812,-0.04305725,-0.034448244,77.64608712,12.84194462,4.51
152145427578,-0.1888794,-0.2781601,9.920423,0.007736206,-0.059890747,-0.060281374,77.64608712,12.84194462,4.51
152145427600,-0.36006927,-0.15545502,9.717755,-0.002279663,-0.09834747,-0.050427247,77.64608712,12.84194462,4.51
152145427622,-0.46984404,-0.2932434,9.790657,-0.008085633,-0.10335235,0.0357605,77.64608712,12.84194462,4.51
152145427644,-0.40268555,-0.2913254,9.863681,-0.0022277832,-0.06612091,0.107133485,77.64604709,12.84194987,4.71
152145427666,-0.48097688,-0.301503,9.768031,0.017536927,-0.023031617,0.13030243,77.64604709,12.84194987,4.71
152145427688,-0.7553528,-0.38327026,10.0703,-0.020065308,0.060705565,0.20013122,77.64604709,12.84194987,4.71
152145427710,0.21239014,-0.37117463,9.280451,0.018016052,0.15876313,0.14132996,77.64604709,12.84194987,4.71
152145427732,0.33210143,-0.40265808,10.005537,-0.009361267,0.10683594,-0.07593994,77.64600468,12.84195011,4.69
152145427754,0.012831116,-0.32676086,9.683515,0.019989014,-0.015412902,-0.12866822,77.64600468,12.84195011,4.69
152145427776,-0.40172577,-0.3279602,9.927127,-0.0055801393,-0.08417358,-0.09500885,77.64600468,12.84195011,4.69
152145427798,-0.38783723,-0.33394012,9.758336,0.009335327,-0.059620667,0.031655885,77.64600468,12.84195011,4.69
152145427820,-0.5838089,-0.36662596,9.719069,0.0013458251,-0.028569032,0.07294007,77.64600468,12.84195011,4.69
152145427842,-0.52035826,-0.36447144,9.786946,-0.015913391,0.08121185,0.14175567,77.64596005,12.8419512,4.93
152145427864,0.11697998,-0.26379547,9.802388,-0.030618286,0.13485107,0.039009094,77.64596005,12.8419512,4.93
152145427886,0.014030457,-0.18992767,9.852066,0.013809204,0.095379636,-0.12931061,77.64596005,12.8419512,4.93
152145427908,-0.08006897,-0.28258666,9.745524,0.008694458,0.036843874,-0.14166717,77.64596005,12.8419512,4.93
152145427930,0.1452301,-0.24535675,9.831598,0.048857115,-0.042048644,-0.20206909,77.64591459,12.84195344,4.92
152145427952,-0.26681215,-0.38565522,10.104055,0.025154114,-0.15422058,-0.16132203,77.64591459,12.84195344,4.92
152145427974,-1.0357132,-0.28318635,9.7071,0.021321107,-0.15975952,0.019407654,77.64591459,12.84195344,4.92
152145427996,-0.79198456,-0.3176605,9.9876995,0.006088257,-0.011787415,0.19544525,77.64591459,12.84195344,4.92
152145428018,0.02204895,-0.04519806,9.819746,-0.018099975,0.046699524,0.09264374,77.64591459,12.84195344,4.92
152145428040,-0.0065643312,-0.11439514,9.931078,0.008906555,-0.048062135,-0.047499083,77.64587102,12.84195558,4.18
152145428062,-0.6749069,-0.1816742,9.753306,0.008480835,-0.064100645,0.06686707,77.64587102,12.84195558,4.18
152145428084,-0.50228274,-0.20561218,9.861168,0.004910278,0.0053085326,0.13797303,77.64587102,12.84195558,4.18
152145428106,-0.3337326,-0.15605469,9.779284,-0.013516235,0.071200565,0.1463913,77.64587102,12.84195558,4.18
152145428128,0.042878725,-0.038499452,9.726252,-0.028538514,0.06821747,0.024359131,77.64587102,12.84195558,4.18
152145428151,0.08753357,-0.22297058,9.814954,0.015779113,-0.0063568116,-0.056764223,77.64583542,12.84196043,3.68
152145428173,-0.19187622,-0.27433014,9.828006,0.0137054445,-0.08811798,-0.04211731,77.64583542,12.84196043,3.68
152145428195,-0.6685608,-0.10074768,9.848236,0.0103469845,-0.097277835,0.06095276,77.64583542,12.84196043,3.68
152145428217,-0.63420564,-0.08027649,9.820465,-9.4451907E-4,-0.03363037,0.16918488,77.64583542,12.84196043,3.68
152145428239,-0.40962678,-0.10517883,9.766596,-0.00952301,0.03503418,0.16045228,77.64580355,12.84196631,3.46
152145428261,-0.15715638,-0.15078735,9.749235,-0.010588074,0.090107724,0.1185318,77.64580355,12.84196631,3.46
152145428283,-0.041877747,-0.25984496,9.774256,-0.019963074,0.12840271,0.0734726,77.64580355,12.84196631,3.46
152145428305,0.14056396,-0.25421602,9.89253,-0.008564758,0.08568726,-0.050851442,77.64580355,12.84196631,3.46
152145428327,0.1996994,-0.4860962,9.142786,-0.0147949215,-0.017918397,-0.12861481,77.64580355,12.84196631,3.46
152145428349,-0.40364075,-0.51434934,10.20533,0.014074707,-0.082365416,-0.061878968,77.64577247,12.84196994,3.45
152145428371,-0.29626006,-0.32879943,9.521904,0.022117615,-0.06744995,0.021058654,77.64577247,12.84196994,3.45
152145428393,-0.59577787,-0.099911496,9.615637,-0.006967163,-0.031707764,0.0852951,77.64577247,12.84196994,3.45
152145428415,-0.06940918,-0.26463166,10.04073,-0.012983704,-0.010568237,0.056214906,77.64577247,12.84196994,3.45
152145428437,-0.08784485,-0.29826814,9.59996,0.029733276,-0.009234619,0.05216675,77.64573775,12.84197071,4.05
152145428459,-0.1992981,-0.25110167,9.937422,-0.018580627,-0.048435975,0.020950317,77.64573775,12.84197071,4.05
152145428481,-0.3666504,-0.74024045,9.784311,0.004701233,-0.058184814,0.07613373,77.64573775,12.84197071,4.05
152145428503,-0.18864135,-0.878508,9.914438,-0.015916442,-0.045080565,0.108148195,77.64573775,12.84197071,4.05
152145428525,-0.35180512,-0.79530793,9.808016,0.01002655,-0.018077087,0.12998351,77.64573775,12.84197071,4.05
152145428547,-0.42375183,-0.8690506,9.826208,0.0045928955,0.06507416,0.20226136,77.64569376,12.84197079,4.77
152145428569,0.12583771,-0.96074677,9.911203,-0.007658386,0.07593994,0.10489502,77.64569376,12.84197079,4.77
152145428591,0.138768,-0.87767184,9.720144,0.004701233,-0.0074737547,-0.0038726807,77.64569376,12.84197079,4.77
152145428613,-0.38460845,-0.79111785,9.730324,-0.0086776735,-0.054403685,0.05669403,77.64569376,12.84197079,4.77
152145428635,-0.3210434,-0.7566406,9.592417,0.023023987,-0.03203125,0.11538696,77.64564484,12.84196437,5.02
152145428657,-0.36198425,-0.69056094,9.968424,-0.013572693,-0.019993592,0.14691925,77.64564484,12.84196437,5.02
152145428679,-0.48684233,-0.71869355,9.377298,0.008908081,0.04446106,0.186763,77.64564484,12.84196437,5.02
152145428701,-0.3182892,-0.64614564,10.040967,-0.015649414,0.09271698,0.15970612,77.64564484,12.84196437,5.02
152145428723,0.079386905,-0.4743622,9.587748,-0.011390686,0.08691406,0.052748106,77.64564484,12.84196437,5.02
152145428745,-0.092753604,-0.77064514,10.488565,0.01194458,0.01244812,-0.03279419,77.64559614,12.84195418,5.02
152145428767,-0.3771866,-0.18107148,8.938917,0.29935455,0.008772278,0.0025222779,77.64559614,12.84195418,5.02
152145428790,-0.18301544,-1.4228271,10.972911,-0.319516,-0.093444824,-0.0010482788,77.64559614,12.84195418,5.02
152145428811,-0.62427217,0.10000763,8.070662,-0.020388793,0.028266907,0.11192627,77.64559614,12.84195418,5.02
152145428833,-0.23808289,-0.8115875,10.091606,-0.01421051,0.039242554,0.07080841,77.64555331,12.84194044,3.69
152145428855,-0.33277282,-0.053344727,9.247891,0.029574584,0.07002716,0.040129088,77.64555331,12.84194044,3.69
152145428878,-0.06462097,-1.1725159,10.26399,0.054608155,0.02997284,-0.033807375,77.64555331,12.84194044,3.69
152145428900,-0.22168426,-0.827153,9.40507,-0.13192444,-0.027235413,-0.050157167,77.64555331,12.84194044,3.69
152145428905,-0.11095276,-1.1399567,9.969622,0.11772613,-9.2010497E-4,0.008328247,77.64555331,12.84194044,3.69
152145428927,-0.16182557,-1.38788,9.806577,-0.024223328,-0.0977066,-0.054315187,77.64551907,12.84192582,2.99
152145428949,-0.6848404,-1.4597,9.914436,-0.015112305,-0.10590973,0.058181763,77.64551907,12.84192582,2.99
152145428971,-0.4642151,-1.9564987,9.86344,0.058018494,-0.036505125,0.17696229,77.64551907,12.84192582,2.99
152145428993,-0.27279967,-2.4729278,9.195097,-0.009788513,0.045899965,0.23837128,77.64551907,12.84192582,2.99
152145429015,0.25476685,-2.7742386,10.609354,-0.32191467,0.02192993,0.18463135,77.64549597,12.84191467,1.71
152145429038,0.13864593,-0.92735136,9.487188,0.2271286,0.06363678,0.0496109,77.64549597,12.84191467,1.71
152145429060,-0.1281906,0.14094695,8.84638,0.11948395,0.033276368,0.051312257,77.64549597,12.84191467,1.71
152145429082,0.40703887,-2.66949,12.8554735,-0.110723875,-0.07672119,-0.06821747,77.64549597,12.84191467,1.71
152145429104,-0.7637299,0.17697755,7.194983,0.051092528,-0.02526703,-0.021928405,77.64549597,12.84191467,1.71
152145429126,-0.6476105,0.11066131,11.003319,0.13008575,-0.008805847,0.1693451,77.64548094,12.8419044,1.57
152145429148,-0.24286957,-0.41690215,8.744509,-0.3196228,-0.09541626,0.122421265,77.64548094,12.8419044,1.57
152145429170,-0.70961916,0.066244505,10.104776,0.12103119,-0.0026809692,0.21195526,77.64548094,12.8419044,1.57
152145429192,-0.50755155,0.65354615,7.8409395,0.07937775,0.050106812,0.2942459,77.64548094,12.8419044,1.57
152145429214,0.006965637,-0.31526947,12.670161,-0.047872923,0.05154419,0.21238251,77.64548094,12.8419044,1.57
152145429236,-0.21545716,0.49480897,7.8493166,-0.20990296,0.044355772,0.087854005,77.64546772,12.84189211,1.89
152145429258,-0.058276366,-0.19759674,11.548599,0.1325882,0.05623169,0.025958251,77.64546772,12.84189211,1.89
152145429280,0.15732422,0.41939393,8.694112,0.058920287,-0.042684935,-0.1083252,77.64546772,12.84189211,1.89
152145429302,-0.973822,-0.171138,10.465581,0.20401612,0.02043457,0.06121826,77.64546772,12.84189211,1.89
152145429324,-0.5337677,0.13148804,8.853806,-0.10758515,0.08211823,0.16039734,77.64545388,12.84187647,1.96
152145429346,0.10704346,-0.89957124,9.930837,-0.058366396,0.07801819,0.034854125,77.64545388,12.84187647,1.96
152145429368,-0.2270691,-0.61478424,9.3533535,-0.061560057,0.070826724,-0.07684632,77.64545388,12.84187647,1.96
152145429390,0.29391176,-0.8278702,9.758333,0.018016052,0.02416687,-0.195195,77.64545388,12.84187647,1.96
152145429412,0.032823183,-0.99438936,10.085623,0.015032959,-0.05429535,-0.2742401,77.64545388,12.84187647,1.96
152145429434,-0.41225892,-0.8406769,9.348567,0.003048706,-0.07203217,-0.17927246,77.64544186,12.84185977,1.96
152145429456,-0.34714204,-0.8454666,10.013199,0.021214295,-0.09525452,-0.085632324,77.64544186,12.84185977,1.96
152145429478,-0.66305846,-0.8024918,9.529688,-0.013999939,-0.08700104,0.02835846,77.64544186,12.84185977,1.96
152145429500,-0.79485625,-0.8556442,9.810885,0.0010772705,0.006376648,0.18222961,77.64544186,12.84185977,1.96
152145429522,-0.5099503,-0.92280275,9.546806,-0.0541626,0.093249515,0.2803467,77.64542292,12.84184305,2.41
152145429544,0.092077635,-0.7672943,9.804663,-0.05080719,0.1543457,0.1487854,77.64542292,12.84184305,2.41
152145429567,0.52818453,-0.8915588,9.966388,2.7770997E-4,0.14805603,-0.119082645,77.64542292,12.84184305,2.41
152145429588,0.49622497,-0.9090347,9.859853,0.053385925,0.08435364,-0.38704833,77.64542292,12.84184305,2.41
152145429610,-0.07204437,-1.0653763,9.977162,0.110961914,-0.019245911,-0.49389344,77.64542292,12.84184305,2.41
152145429632,-0.3451065,-1.1087112,9.714041,0.073358156,-0.09552002,-0.46486664,77.64539966,12.84182756,2.24
152145429654,-0.7843216,-1.4223572,10.0323515,0.070166014,-0.09445648,-0.2797226,77.64539966,12.84182756,2.24
152145429709,-0.45200196,-1.8586944,9.154994,-0.054689027,-0.07197571,-0.05154419,77.64539966,12.84182756,2.24
152145429731,-0.2329361,-1.9683502,10.379751,0.049176026,-0.02734375,-0.08297272,77.64539966,12.84182756,2.24
152145429753,-0.067495726,-2.2291992,9.485155,0.010612488,-0.010670471,-0.0030715943,77.64538142,12.84181869,1.06
152145429775,-0.05432739,-2.360643,9.796641,9.6588134E-4,0.008454895,-0.02331543,77.64538142,12.84181869,1.06
152145429797,-0.23353425,-2.0398164,9.591817,-0.0016403198,0.055380248,-0.012716675,77.64538142,12.84181869,1.06
152145429819,-0.57099915,-0.39846802,9.743848,0.023239136,0.026457215,0.001989746,77.64538142,12.84181869,1.06
152145429841,-0.4722351,-0.33992615,9.824178,-0.0065979003,0.037376404,-8.6975095E-5,77.64538142,12.84181869,1.06
152145429863,-0.69801176,-0.39798585,9.844286,0.0052337646,-0.0074737547,0.0010314941,77.64536812,12.84181434,1.06
152145429885,-0.43812102,-0.3619507,9.815796,-0.0010559082,-0.0791687,0.003694153,77.64536812,12.84181434,1.06
152145429907,-0.3463028,-0.3696167,9.848836,0.009173584,-0.079489134,4.4555665E-4,77.64536812,12.84181434,1.06
152145429929,-0.04259491,-0.36698,9.763003,-0.01250763,-0.038476564,0.009500122,77.64536812,12.84181434,1.06
152145429951,-0.0883255,-0.40193635,9.806699,-0.01250763,0.016125489,-0.003286743,77.64536152,12.84181193,0.0
152145429973,-0.32978362,-0.44706726,9.804662,-0.01191864,0.0069091795,-0.017456055,77.64536152,12.84181193,0.0
152145429995,0.091841124,-0.39607087,9.798676,0.0038482666,-0.061433412,0.013761902,77.64536152,12.84181193,0.0
152145430017,-0.09945679,-0.45448914,9.730562,-0.00904541,5.17273E-4,-0.011064148,77.64536152,12.84181193,0.0
152145430039,0.0016998291,-0.3957123,9.828367,0.0018249511,0.022676086,-0.002168274,77.64536152,12.84181193,0.0
152145430061,-0.17152253,-0.48106536,9.81304,-0.002331543,-0.014025879,-0.001473999,77.64535148,12.84181885,0.0
152145430084,0.008404541,-0.45736235,9.773895,0.003527832,-0.039222717,-0.0030212402,77.64535148,12.84181885,0.0
