timestamp,accx,accy,accz,gyrx,gyry,gyrz,longitude,latitude,speed
152145513553,-0.4494919,-0.35943756,9.746483,1.373291E-4,-0.0015899658,-2.5024413E-4,77.65358914,12.83993294,0.0
152145513575,-0.4366867,-0.34818727,9.767553,3.0059816E-4,0.0012298584,2.2888184E-4,77.65358914,12.83993294,0.0
152145513597,-0.46577302,-0.3254425,9.736547,-4.4555665E-4,-0.007559204,-0.002380371,77.65358914,12.83993294,0.0
152145513619,-0.39143372,-0.3802719,9.77605,0.0016860962,-0.004736328,-7.8277587E-4,77.65358914,12.83993294,0.0
152145513641,-0.43572694,-0.3964325,9.731878,0.0017913819,0.01342926,6.5612793E-4,77.65359147,12.83992586,0.0
152145513663,-0.4809784,-0.3419632,9.754263,4.6081544E-4,0.01257782,0.0016159058,77.65359147,12.83992586,0.0
152145513685,-0.48684233,-0.36495057,9.729126,0.0018920898,-0.003616333,-0.0012619018,77.65359147,12.83992586,0.0
152145513707,-0.48492736,-0.34088287,9.801074,1.4038086E-4,0.0034683228,2.8381348E-4,77.65359147,12.83992586,0.0
152145513729,-0.5047989,-0.35057983,9.80406,0.0011520386,-0.0042007444,-0.004298401,77.65359147,12.83992586,0.0
152145513751,-0.50132596,-0.3532135,9.80598,3.0517578E-5,-0.00559082,2.2888184E-4,77.65359586,12.83991816,0.0
152145513773,-0.4840912,-0.3503418,9.825373,0.0013122559,-0.008039856,-0.001210022,77.65359586,12.83991816,0.0
152145513795,-0.4348877,-0.32891542,9.800473,7.797241E-4,-0.016564941,-5.187988E-4,77.65359586,12.83991816,0.0
152145513817,-0.45739442,0.23779449,9.793051,0.010635376,-0.022479247,2.822876E-4,77.65359586,12.83991816,0.0
152145513839,-0.39215088,0.23827668,9.717394,0.0062698363,-0.017414857,-3.5705566E-4,77.65359801,12.83991089,0.0
152145513861,-0.36473846,0.468956,9.797236,1.9073486E-4,-0.011074829,-0.0071777343,77.65359801,12.83991089,0.0
152145513883,-0.33899993,0.7846314,9.830518,0.0064819334,-0.0032455444,-0.021557618,77.65359801,12.83991089,0.0
152145513905,-0.32044524,0.84950864,9.792093,0.0028564453,0.0073043825,-0.02331543,77.65359801,12.83991089,0.0
152145513927,-0.15488282,0.93426514,9.835428,0.012286377,0.01305542,-0.068696596,77.65359801,12.83991089,0.0
152145513949,-0.040919494,0.92013705,9.756895,0.012820435,-0.006922913,-0.1375122,77.65360193,12.83990621,0.53
152145513971,-0.189357,1.2773559,9.853144,0.02576599,-0.029881287,-0.190242,77.65360193,12.83990621,0.53
152145513993,-0.49941102,1.4822998,9.923294,0.02155609,-0.018374633,-0.11413117,77.65360193,12.83990621,0.53
152145514015,-0.031341553,1.3422425,9.919943,0.022781372,-0.03765564,-0.10400848,77.65360193,12.83990621,0.53
152145514037,-0.2648987,1.4022156,9.514486,0.021713257,-0.067855835,-0.08424988,77.65360193,12.83990621,0.53
152145514059,-0.3357666,1.0171082,9.946878,-0.024734497,-0.080107115,-0.0025390624,77.65361151,12.83989763,1.8
152145514081,-0.5721924,1.0230926,9.558655,0.011650085,-0.05646057,0.09104614,77.65361151,12.83989763,1.8
152145514103,-0.560466,0.88722384,9.941849,-0.0034759522,0.045069885,0.22766571,77.65361151,12.83989763,1.8
152145514125,-0.0022506714,0.9602448,9.73152,-0.040663145,0.1265625,0.14191285,77.65361151,12.83989763,1.8
152145514147,0.15720367,0.8602875,9.795923,-0.012644959,0.12996674,-0.007972717,77.65363313,12.83987953,3.31
152145514169,0.4847351,0.8648346,10.020022,0.00605011,0.05077057,-0.15487671,77.65363313,12.83987953,3.31
152145514191,-0.13273926,0.8498718,9.991292,0.057777405,-0.06567383,-0.20680848,77.65363313,12.83987953,3.31
152145514214,-0.38065797,0.71795046,9.758334,0.02160797,-0.11110687,-0.069654845,77.65363313,12.83987953,3.31
152145514236,-0.61002195,0.6659973,9.709612,-0.0116851805,-0.081121825,0.041136168,77.65363313,12.83987953,3.31
152145514258,-0.18253937,0.59728396,9.960881,-0.009500122,-0.018693542,0.079754636,77.65366511,12.83985395,4.31
152145514280,0.02695465,0.45746154,9.736308,0.009622192,-0.0039901733,0.042362977,77.65366511,12.83985395,4.31
152145514302,-0.10723877,0.40203553,9.828009,5.691528E-4,-0.022421265,0.01909027,77.65366511,12.83985395,4.31
152145514324,-0.12244415,0.34720764,9.480606,-0.017919922,-0.015446472,0.05770569,77.65366511,12.83985395,4.31
152145514346,-0.246344,0.3142868,9.714281,-0.01290741,0.012203979,0.06414948,77.65370433,12.83982416,5.06
152145514368,0.0066055297,0.27957457,9.834948,-0.0035354614,0.032125853,0.051686097,77.65370433,12.83982416,5.06
152145514390,0.056764223,0.20080414,9.999552,0.011166382,0.035484314,0.022605896,77.65370433,12.83982416,5.06
152145514412,-0.03086548,-0.42755738,9.811007,-0.005453491,0.010444641,0.006465149,77.65370433,12.83982416,5.06
152145514434,-0.046304323,-0.33106995,9.593252,-0.014775085,5.3863524E-4,0.010298157,77.65370433,12.83982416,5.06
152145514456,-0.12423706,-0.44838563,10.164395,-0.014402771,0.013485718,0.02345581,77.65374871,12.83979273,5.57
152145514478,-0.03277893,-0.72826844,9.987579,0.012393189,0.009541321,0.0049179075,77.65374871,12.83979273,5.57
152145514500,0.026356507,-0.8702469,9.792572,-0.001083374,-0.004312134,-0.0020111084,77.65374871,12.83979273,5.57
152145514522,-0.072525024,-0.6030518,9.923894,-0.01781311,-0.008624268,0.0129119875,77.65374871,12.83979273,5.57
152145514544,-0.10795899,-0.66985166,9.780722,0.03519287,0.020141602,0.021646118,77.65381434,12.83975325,5.55
152145514610,0.0117553715,-0.7793869,9.806338,-0.0105636595,0.015238953,0.007208252,77.65381434,12.83975325,5.55
152145514633,-0.015063477,-0.7755569,9.751871,0.006906128,-0.0038848878,-0.008670044,77.65381434,12.83975325,5.55
152145514655,0.0255188,-1.0364059,9.865595,-0.020262146,-0.005958557,-0.00728302,77.65381434,12.83975325,5.55
152145514677,-0.027508546,-0.9917542,9.70075,-0.006892395,-0.016563416,0.0023620606,77.65381434,12.83975325,5.55
152145514699,-0.026550293,-1.0597519,9.728407,0.005627441,-0.031156922,0.005505371,77.65385481,12.83972867,4.86
152145514721,-0.11993103,-1.0850098,9.886782,0.012712097,-0.02663269,0.024151612,77.65385481,12.83972867,4.86
152145514743,-0.08078156,-1.1520462,9.731043,-0.002734375,-0.010383606,0.04854126,77.65385481,12.83972867,4.86
152145514765,0.03042755,-1.1640198,9.582242,-0.0070007322,-0.007936096,0.048168946,77.65385481,12.83972867,4.86
152145514787,0.0582016,-1.1581513,9.734154,-0.02569275,-0.045059204,0.033737183,77.65388865,12.83970978,3.81
152145514809,-0.21593781,-0.7786667,10.15769,0.049253844,-0.029292297,0.08023529,77.65388865,12.83970978,3.81
152145514831,-0.33073884,-0.44455567,10.467737,0.34949952,0.04954376,0.16604157,77.65388865,12.83970978,3.81
152145514853,0.09363556,-1.4545562,6.665625,-0.32583314,0.016571045,0.12865296,77.65388865,12.83970978,3.81
152145514875,-0.003691101,-1.062143,12.621081,-0.47417298,-0.0056396485,0.083854675,77.65388865,12.83970978,3.81
152145514897,-0.14506683,0.27741852,7.6789703,0.32297212,0.08735962,0.11448212,77.65392333,12.83969575,3.28
152145514919,-0.04271393,-0.7087601,12.5978565,0.100543216,0.14477997,0.02931366,77.65392333,12.83969575,3.28
152145514941,0.57415617,0.29741058,8.1651125,-0.008009339,0.12442932,-0.06501923,77.65392333,12.83969575,3.28
152145514963,0.5809784,0.10838775,11.167682,0.08259277,-0.0018081665,-0.32031402,77.65392333,12.83969575,3.28
152145514985,-0.45870972,0.55909574,9.11525,0.02459259,-0.12596893,-0.23807374,77.6539511,12.83968246,3.58
152145515007,-0.79988706,0.5280884,10.241963,0.08435211,-0.06269226,-0.03125,77.6539511,12.83968246,3.58
152145515029,-0.22658844,0.7293213,9.623299,-0.0374115,-0.008197022,0.04337616,77.6539511,12.83968246,3.58
152145515051,-0.105206296,0.70430297,9.925209,-2.807617E-4,-0.0076141357,-0.018785095,77.6539511,12.83968246,3.58
152145515073,-0.2859665,0.76248014,9.715836,-0.026281739,-0.013420105,-0.016018678,77.6539511,12.83968246,3.58
152145515095,-0.1314209,0.6288864,10.077601,0.0011550903,0.007943725,-0.001210022,77.65398167,12.83966469,4.06
152145515117,-0.056121826,0.40000305,9.670825,0.015377807,0.0019256591,-0.024221802,77.65398167,12.83966469,4.06
152145515139,-0.107121274,0.4677536,9.764679,-0.027667236,-0.013795471,-0.02688446,77.65398167,12.83966469,4.06
152145515161,-0.098019406,0.42920837,10.077962,-0.051631164,-0.018428039,-0.021557618,77.65398167,12.83966469,4.06
152145515184,-0.005125427,0.48176116,9.622226,0.10054932,-0.030039977,-0.02778778,77.65401407,12.83964591,4.48
152145515205,-0.09981842,0.36720124,10.274045,-0.0033203126,-0.03477783,-0.016552735,77.65401407,12.83964591,4.48
152145515227,0.003375244,0.4726654,9.410576,-0.016583253,-0.055073548,0.0012435913,77.65401407,12.83964591,4.48
152145515209,-0.23018341,0.30842286,9.873138,-0.0338974,-0.043833923,0.040019225,77.65401407,12.83964591,4.48
152145515231,-0.090481564,0.2825653,9.755463,0.014414978,-0.009371948,0.06250153,77.65401407,12.83964591,4.48
152145515253,-0.03697052,0.06612702,9.973935,-0.0077957152,0.01891632,0.065107726,77.65405281,12.83962102,5.17
152145515275,0.037368774,-0.057652283,9.455828,-0.022766113,0.022538757,0.04646454,77.65405281,12.83962102,5.17
152145515297,-0.033854675,-0.0617218,9.802626,-5.523682E-4,0.012417602,0.02883606,77.65405281,12.83962102,5.17
152145515319,0.14379577,-0.8221237,9.687225,0.012236023,-0.024232483,0.015571594,77.65405281,12.83962102,5.17
152145515342,-0.0684555,-0.63764954,9.990091,-0.012643432,-0.045913696,0.036665343,77.65405281,12.83962102,5.17
152145515363,-0.26046905,-0.6641037,9.853264,0.01905365,0.019502258,0.107824706,77.65409276,12.83959694,5.07
152145515386,-0.07072754,-0.6597961,9.849315,0.001097107,0.06637573,0.09887695,77.65409276,12.83959694,5.07
152145515408,0.17947082,-0.72324216,9.853027,-0.015626526,0.10488434,0.048223875,77.65409276,12.83959694,5.07
152145515430,0.2506973,-0.71354675,9.64856,-0.012802124,0.09141083,-0.043823242,77.65409276,12.83959694,5.07
152145515452,0.39219514,-0.62173,9.942088,-0.0018859863,0.040914916,-0.11961822,77.65413111,12.83957659,4.76
152145515517,0.2435135,-0.70456696,9.85195,0.019586181,-0.07584534,-0.17490387,77.65413111,12.83957659,4.76
152145515539,-0.21294555,-0.6924759,9.712605,-0.0020965575,-0.112226866,-0.06842957,77.65413111,12.83957659,4.76
152145515561,-0.19283295,-0.69152224,9.668432,0.0021087646,-0.09923096,0.020845031,77.65413111,12.83957659,4.76
152145515584,-0.1803833,-0.6560852,9.709971,0.017456055,-0.03360901,0.10601501,77.65413111,12.83957659,4.76
152145515605,0.13170472,-0.6838592,10.008169,-0.032562256,-6.362915E-4,0.095631406,77.65416788,12.83955821,4.18
152145515627,0.041801453,-0.7403595,9.409859,0.01958313,0.002029419,0.06713257,77.65416788,12.83955821,4.18
152145515650,0.072927855,-0.85061646,10.15374,-0.033843994,0.021580506,0.07677002,77.65416788,12.83955821,4.18
152145515672,0.12763366,-0.61394346,9.757254,0.0797226,0.03953247,0.07554474,77.65416788,12.83955821,4.18
152145515694,0.121292114,-1.2014862,9.984467,-0.023403931,0.039849855,0.03980713,77.65420039,12.83953984,3.9
152145515716,0.14906463,-0.45305786,9.589304,-0.013920593,0.012257385,0.017651368,77.65420039,12.83953984,3.9
152145515738,0.14523315,-0.41821748,11.410814,0.3418808,0.05262909,-0.018148804,77.65420039,12.83953984,3.9
152145515760,0.095674135,-0.92747194,7.0976562,-0.18201752,-0.011715698,-0.013731385,77.65420039,12.83953984,3.9
152145515782,0.32815248,-1.2857605,12.136617,-0.56104434,-0.07259369,-0.069813535,77.65420039,12.83953984,3.9
152145515804,-0.023918152,0.78379214,8.344197,0.25255737,-0.078883365,-0.06166687,77.65422822,12.83952664,3.5
152145515826,-0.70112306,0.062057495,11.351916,0.33644867,-0.025993347,0.09626923,77.65422822,12.83952664,3.5
152145515848,-0.1955841,0.93211365,9.291463,-0.16135558,-0.024284363,0.21547088,77.65422822,12.83952664,3.5
152145515870,-0.01458435,0.9212189,9.932513,0.14395599,0.047946166,0.1279068,77.65422822,12.83952664,3.5
152145515892,-0.1250763,0.6383408,9.622342,-0.09781647,0.036543272,0.10851745,77.65425712,12.83951149,3.59
152145515914,-0.0059631346,0.96239775,9.725771,-0.013070678,0.07867889,0.08507995,77.65425712,12.83951149,3.59
152145515936,0.13864441,0.7891754,9.854581,0.012818908,0.08757172,0.009179687,77.65425712,12.83951149,3.59
152145515958,0.17863312,0.69185334,9.960406,-0.018447876,0.05694733,-0.060173035,77.65425712,12.83951149,3.59
152145515980,0.14594726,0.6311585,9.718828,-0.006517029,0.00181427,-0.104969785,77.65425712,12.83951149,3.59
152145516002,0.14834747,0.4800888,9.747441,0.01776886,-0.051023863,-0.098042294,77.65429179,12.83949884,4.39
152145516024,-0.075517274,0.4213089,9.843928,0.012605285,-0.10865784,-0.06683044,77.65429179,12.83949884,4.39
152145516046,-0.24335174,0.44453278,9.860567,-0.021754455,-0.106523134,0.038102724,77.65429179,12.83949884,4.39
152145516068,-0.18481293,0.40981904,9.51604,0.027304078,-0.079733275,0.08998108,77.65429179,12.83949884,4.39
152145516090,-0.13824463,0.3045929,9.798198,-0.016856384,-0.053315736,0.12779388,77.65432942,12.83948423,4.39
152145516112,-0.06797333,0.4037094,9.735352,0.02720337,-0.008201599,0.13962555,77.65432942,12.83948423,4.39
152145516134,-0.03361664,0.2709549,10.165828,-0.009288025,0.033456422,0.14132842,77.65432942,12.83948423,4.39
152145516117,-0.0060836794,0.17171021,9.98387,0.014523315,0.061901856,0.110968016,77.65432942,12.83948423,4.39
152145516139,0.031025697,0.15626831,9.757734,0.007331848,0.084538266,0.08822326,77.65432942,12.83948423,4.39
152145516161,0.14439392,0.22785798,9.964714,-0.02447052,0.075639345,0.032244872,77.65438028,12.83947739,5.6
152145516183,0.06754303,0.21085815,9.678609,-0.01594696,0.044538878,0.008383179,77.65438028,12.83947739,5.6
152145516205,-0.0041687014,0.3087799,9.872894,0.037484743,0.032444764,-0.0011032105,77.65438028,12.83947739,5.6
152145516227,0.011631775,0.040626526,9.779162,-0.030378724,0.044854738,-0.003501892,77.65438028,12.83947739,5.6
152145516249,0.07292481,0.3610916,9.532199,-0.007157898,0.037237547,-0.03055725,77.65438028,12.83947739,5.6
152145516271,0.11853943,0.15291901,9.871939,0.023260498,6.1035156E-5,-0.059376527,77.65442749,12.83946738,5.98
152145516293,0.050297547,0.18177184,9.74337,-9.262085E-4,-0.043035887,-0.059910584,77.65442749,12.83946738,5.98
152145516315,-0.1546463,0.21253204,9.8730135,-0.009606933,-0.07355499,-0.029017638,77.65442749,12.83946738,5.98
152145516337,-0.13800201,0.27921295,10.056294,0.01015625,-0.05821686,0.017543029,77.65442749,12.83946738,5.98
152145516359,-0.18361358,0.06696777,10.018347,0.0160141,-0.040635683,0.04055481,77.65448368,12.83945189,6.26
152145516381,-0.124119565,0.14765015,9.842133,0.0124435425,-0.004734802,0.06452026,77.65448368,12.83945189,6.26
152145516403,0.0013397217,0.044700623,9.739538,-0.020263672,0.022271728,0.053388976,77.65448368,12.83945189,6.26
152145516425,0.007322693,0.267601,9.742891,-0.0015090943,0.03926239,0.033575438,77.65448368,12.83945189,6.26
152145516447,0.0046920776,0.07642212,9.739179,0.0048278808,0.015400696,0.0058258055,77.65448368,12.83945189,6.26
152145516469,-0.016976928,0.10455322,9.64018,7.797241E-4,1.6174317E-4,0.007583618,77.65454071,12.83943767,6.47
152145516491,-0.08245697,0.06576691,9.852305,-0.0044418336,0.022325134,0.023138428,77.65454071,12.83943767,6.47
152145516513,-0.14195557,0.20714721,9.505384,-0.0017242432,0.042723082,0.018981934,77.65454071,12.83943767,6.47
152145516535,-0.02068634,0.22714081,9.963519,-0.008276368,0.053645324,-0.0019561767,77.65454071,12.83943767,6.47
152145516557,0.015942384,0.18883057,9.780119,0.019744873,0.04134216,-0.033329774,77.65459823,12.8394253,6.62
152145516579,-0.029429626,0.2939392,9.916229,0.005039978,0.0046951296,-0.042489626,77.65459823,12.8394253,6.62
152145516601,0.011633301,0.14381866,9.767314,-0.0011367798,-0.00995636,-0.046699524,77.65459823,12.8394253,6.62
152145516623,-0.021766663,0.15040588,9.799396,-0.0028427124,-0.022102356,-0.03503418,77.65459823,12.8394253,6.62
152145516646,0.03868866,0.14489898,9.640539,0.010902405,-0.04095917,-0.030030822,77.65459823,12.8394253,6.62
152145516667,-0.1224411,0.17757721,9.450317,0.008238221,-0.044099428,-0.01149292,77.65466008,12.83941195,7.02
152145516689,-0.11526032,0.35594788,9.7897005,-0.0049179075,-0.026472474,0.009126281,77.65466008,12.83941195,7.02
152145516711,-0.069891356,0.26784056,10.225922,0.010153199,-0.01997223,0.011042786,77.65466008,12.83941195,7.02
152145516734,-0.05707855,0.12909393,9.680046,-0.019197082,-0.0018600464,0.022125244,77.65466008,12.83941195,7.02
152145516755,-0.12220154,0.33427888,9.740259,-0.0072601316,0.013272095,0.022392273,77.65472231,12.83939599,7.17
152145516778,-0.024876405,0.0029190064,10.014757,0.022138977,0.026853943,0.010935974,77.65472231,12.83939599,7.17
152145516800,-0.05157318,0.21038055,9.644849,-0.009501648,0.013005066,-0.0023254394,77.65472231,12.83939599,7.17
152145516822,-0.06258698,0.30267793,10.036779,0.023899842,0.014122009,-0.004246521,77.65472231,12.83939599,7.17
152145516844,-0.005961609,0.103479005,9.585474,-0.008433533,0.0034179688,-0.012718201,77.65472231,12.83939599,7.17
152145516866,-0.06306305,0.30279693,9.900431,0.007118225,-0.011129761,-0.007385254,77.65479626,12.83937953,7.68
152145516888,-0.0021331788,0.21277618,9.916471,-0.009712219,-0.023487855,-0.0075515746,77.65479626,12.83937953,7.68
152145516910,-0.04534912,0.2585022,9.736905,0.0038650513,-0.03653717,0.0024673461,77.65479626,12.83937953,7.68
152145516932,-0.1577591,0.17195435,10.159124,0.0144699095,-0.04079895,0.019726563,77.65479626,12.83937953,7.68
152145516954,-0.12687226,0.26293182,9.809331,0.0053619384,-4.2266847E-4,0.0439621,77.65486598,12.83935803,7.94
152145516976,0.004930115,0.16943817,9.68627,-0.034269713,0.05380554,0.040982056,77.65486598,12.83935803,7.94
152145516998,0.14008483,0.15052184,9.584874,0.009249878,0.06988831,0.0064117434,77.65486598,12.83935803,7.94
152145517020,0.0512619,0.14298554,10.042048,-0.0032669068,0.01657257,-0.031947326,77.65486598,12.83935803,7.94
152145517042,-0.099214174,0.3491226,9.693449,0.037802123,-0.008041382,-0.016394043,77.65486598,12.83935803,7.94
152145517064,-0.061151125,0.2904663,9.771738,-0.04550781,-0.025567627,-0.008242798,77.65494262,12.839342,8.29
152145517086,-0.12005005,0.13747558,9.557103,-0.007421875,-0.018055726,0.0038024902,77.65494262,12.839342,8.29
152145517108,0.030311584,0.33871,9.9533415,-0.0024124146,-0.0066009522,0.009020996,77.65494262,12.839342,8.29
152145517130,-0.10341187,0.19158784,10.589479,0.026083374,-0.0083557125,-0.0050445558,77.65494262,12.839342,8.29
152145517152,-0.038165282,0.14932556,9.94975,-0.022602845,-0.0332901,0.004069519,77.65501631,12.83932813,8.49
152145517174,-0.061627198,-0.0073760985,9.811127,0.0155914305,-0.011235046,0.013442993,77.65501631,12.83932813,8.49
152145517196,-0.0066833496,0.13807373,9.588824,-0.017541504,-0.008731079,0.02532196,77.65501631,12.83932813,8.49
152145517218,-0.10556183,0.2070282,10.003143,0.01702423,0.021791076,0.016905213,77.65501631,12.83932813,8.49
152145517240,0.056526184,-0.094041444,9.427933,-0.03592224,0.01300354,0.012055969,77.65501631,12.83932813,8.49
152145517262,0.03796692,-0.2434433,9.703985,0.028213501,0.026531983,0.004812622,77.65509586,12.83930878,8.65
152145517284,0.06442871,-0.058128357,9.8621235,-0.005130005,0.01598816,-6.210327E-4,77.65509586,12.83930878,8.65
152145517306,-0.031584166,-0.10601807,9.827528,-0.01040802,0.01342926,-0.00259552,77.65509586,12.83930878,8.65
152145517328,-0.055883788,-0.16299744,9.894445,0.011860657,8.590698E-4,-0.009786988,77.65509586,12.83930878,8.65
152145517350,-0.024397278,-0.3457962,9.697044,-0.031184386,5.92041E-4,-0.0055236816,77.65517033,12.83929054,8.6
152145517372,-0.07228394,-0.2403305,9.807657,0.04925232,0.021635437,6.011963E-4,77.65517033,12.83929054,8.6
152145517394,0.066819765,-0.31167755,9.771741,-0.033366393,0.024775695,-0.012876892,77.65517033,12.83929054,8.6
152145517417,0.047668457,-0.24655762,10.057611,4.6081544E-4,-1.02233884E-4,-0.03615265,77.65517033,12.83929054,8.6
152145517439,0.15780029,-0.8639023,9.605945,-0.030911256,-0.051130675,-0.036683656,77.65517033,12.83929054,8.6
152145517461,-0.06533661,-0.7196518,9.795565,0.0039260862,-0.06673889,-0.0062713623,77.65524669,12.83926328,8.69
152145517483,-0.10496368,-0.7553253,9.814839,-0.008380127,-0.032971192,0.028941344,77.65524669,12.83926328,8.69
152145517505,-0.12328033,-0.7961441,9.798915,0.021446228,0.013375854,0.03692932,77.65524669,12.83926328,8.69
152145517527,0.04288025,-0.85899353,9.81675,-0.038639832,0.036709595,0.020050049,77.65524669,12.83926328,8.69
152145517549,0.10441132,-0.7502991,9.6989565,0.058522034,0.039900206,-0.0031829835,77.65524669,12.83926328,8.69
152145517571,0.0064880373,-0.5205704,9.637904,-0.024734497,0.02178955,-0.0064315796,77.65532476,12.83924958,8.17
152145517593,0.22460327,-0.38230592,9.8233385,0.029013062,0.029248048,-0.021879578,77.65532476,12.83924958,8.17
152145517615,0.24160156,-0.48968965,10.031514,0.021554565,-0.066418454,-0.06986847,77.65532476,12.83924958,8.17
152145517637,0.003614807,-0.4237259,9.669627,-0.002947998,-0.13049622,-0.024111938,77.65532476,12.83924958,8.17
152145517659,-0.103048705,-0.45078278,9.957889,0.022088623,-0.100665286,0.049075317,77.65539046,12.83923196,7.77
152145517681,-0.03529358,-0.479393,9.784673,0.0044555664,-0.03136902,0.08540039,77.65539046,12.83923196,7.77
152145517703,-0.06210785,-0.5224884,9.868706,-0.008007812,0.02562561,0.093603514,77.65539046,12.83923196,7.77
152145517725,0.07316284,-0.513031,9.613005,-2.8381348E-4,0.08048706,0.08209839,77.65539046,12.83923196,7.77
152145517747,0.12835082,-0.2939621,9.930597,-0.023403931,0.094976805,0.03352051,77.65539046,12.83923196,7.77
152145517769,0.27499694,-0.5928772,9.930237,7.247925E-4,0.069036864,-0.012396241,77.65545661,12.83922059,7.39
152145517791,0.2726059,-0.73497313,9.910364,0.012283325,0.002241516,-0.041267395,77.65545661,12.83922059,7.39
152145517813,0.062031556,-0.77088773,9.965433,-0.0060928343,-0.044207763,-0.024491882,77.65545661,12.83922059,7.39
152145517835,-0.055882264,-0.70816195,9.879361,-5.5084226E-4,-0.048204042,0.018769836,77.65545661,12.83922059,7.39
152145517857,-0.08677216,-0.8734833,9.78108,-0.014134216,-0.01134491,0.047210693,77.65552274,12.8392109,6.93
152145517879,-0.081503294,-0.83277893,9.568956,-0.019836426,0.02749176,0.052111816,77.65552274,12.8392109,6.93
152145517901,0.031982422,-0.80081785,9.73966,0.014685059,0.04853058,0.03309784,77.65552274,12.8392109,6.93
152145517923,0.06933594,-0.8322983,9.807775,-3.9367675E-4,0.06483002,0.015731812,77.65552274,12.8392109,6.93
152145517945,0.2293869,-1.1073974,9.999908,-0.001348877,0.04155426,-0.020544434,77.65552274,12.8392109,6.93
152145517967,0.24255829,-1.2503326,9.874216,-0.025854493,-7.4310304E-4,-0.06134796,77.65558223,12.83920122,6.26
152145517989,0.13780823,-1.2172867,9.865112,0.013192749,-0.053367615,-0.061665345,77.65558223,12.83920122,6.26
152145518011,-0.024998475,-0.8385254,9.555544,0.03567047,-0.08410034,-0.023420716,77.65558223,12.83920122,6.26
152145518033,-0.13884278,-0.64483184,9.803583,0.018041993,-0.07765655,0.03416443,77.65558223,12.83920122,6.26
152145518055,-0.16386262,-0.72264403,9.7728195,-0.027026366,-0.03829651,0.08508301,77.65563848,12.83919354,5.47
152145518077,-0.031460572,-0.8738373,9.620786,0.009088134,0.0038421631,0.08923797,77.65563848,12.83919354,5.47
152145518100,-0.059954833,-1.074115,9.809567,-0.018557739,0.04059601,0.090725705,77.65563848,12.83919354,5.47
152145518121,0.12188721,-1.3067124,9.792331,-0.010406494,0.066532895,0.07533417,77.65563848,12.83919354,5.47
152145518144,0.027075196,-1.4392319,9.630961,0.0028030395,0.09247132,0.043804932,77.65563848,12.83919354,5.47
152145518166,0.23070374,-1.4125335,10.002783,-0.0066253664,0.11479034,-7.8125E-4,77.65568102,12.83919073,4.57
152145518188,0.45995027,-1.4413879,10.195035,0.040516663,0.08725586,-0.108537294,77.65568102,12.83919073,4.57
152145518210,0.29104155,-0.6626709,10.808069,0.38406676,0.026957702,-0.211763,77.65568102,12.83919073,4.57
152145518232,0.28900298,-2.2172256,7.026309,-0.3111313,-0.10455322,-0.21634522,77.65568102,12.83919073,4.57
152145518254,0.047424316,-0.75568545,11.68327,-0.54991305,-0.18844604,-0.19780731,77.65571525,12.83918261,3.21
152145518276,-0.40160674,0.7175934,8.283147,0.41991273,-0.11994781,-0.052131653,77.65571525,12.83918261,3.21
152145518298,-0.64031065,-0.47065124,11.739535,0.14997253,-0.14391632,0.1411148,77.65571525,12.83918261,3.21
152145518320,-0.436203,0.7683487,8.897977,0.0022720336,-0.0699295,0.27752534,77.65571525,12.83918261,3.21
152145518342,-0.32618865,0.43722993,10.573439,0.10438232,0.0522583,0.28466186,77.65571525,12.83918261,3.21
152145518364,-0.13920136,0.5673523,9.387596,-0.07831421,0.1059494,0.25035706,77.65574821,12.83917503,3.87
152145518386,-0.053129576,0.4709854,9.893608,-0.019622803,0.21391296,0.18649292,77.65574821,12.83917503,3.87
152145518408,0.5676926,0.46847534,9.593735,-0.020365905,0.20944062,-0.0053100586,77.65574821,12.83917503,3.87
152145518430,0.30420685,0.6042236,10.13698,-0.02297821,0.083258055,-0.21373291,77.65574821,12.83917503,3.87
152145518452,-0.23293456,0.61703336,9.729483,0.0364151,-0.017416382,-0.20585021,77.65578065,12.83917,4.39
152145518474,-0.049058534,0.253714,9.955854,0.032421876,-0.051719666,-0.1405487,77.65578065,12.83917,4.39
152145518496,-0.15416566,0.52114713,9.75091,0.022195434,-0.0925705,-0.10981445,77.65578065,12.83917,4.39
152145518518,-0.27579194,0.46656036,10.15697,0.0106369015,-0.097415164,-0.046328735,77.65578065,12.83917,4.39
152145518540,-0.29997405,0.48666993,9.478574,0.020063782,-0.080265805,0.021058654,77.65578065,12.83917,4.39
152145518562,-0.29315186,0.46105194,9.847516,-0.011148071,-0.016775513,0.067453004,77.65582911,12.83916421,4.81
152145518584,-0.2194107,0.54544675,9.7976,-0.028570557,0.05444336,0.07235412,77.65582911,12.83916421,4.81
152145518606,0.15169677,0.47769624,10.107646,-0.012110901,0.088157654,0.01061554,77.65582911,12.83916421,4.81
152145518628,0.1740799,0.39114076,9.909167,0.0375885,0.03260498,-0.08414612,77.65582911,12.83916421,4.81
152145518650,0.079631045,0.26257324,9.597204,0.0013656616,-0.019493103,-0.06518097,77.655875,12.83916222,5.11
152145518672,0.014268493,0.24820861,9.552075,-0.0058776857,-0.0703064,-0.06507416,77.655875,12.83916222,5.11
152145518694,-0.106040955,0.018241882,9.855059,0.016604614,-0.096408084,-0.017243957,77.655875,12.83916222,5.11
152145518716,-0.21605377,-0.34232178,9.697284,-0.025848389,-0.071955875,0.05541382,77.655875,12.83916222,5.11
152145518738,-0.16697541,-0.13737793,10.046956,0.024855042,0.0052246093,0.09589233,77.655875,12.83916222,5.11
152145518760,0.09040375,-0.8355316,9.840456,-0.02505188,0.036442567,0.05605316,77.65593116,12.83915598,5.86
152145518783,0.18090972,-0.6022156,9.726494,-0.01934967,0.0052261353,0.017543029,77.65593116,12.83915598,5.86
152145518805,-0.07587738,-0.7388031,10.347789,-0.007633972,0.028182983,0.040182494,77.65593116,12.83915598,5.86
152145518827,0.17695618,-0.70648193,9.58978,0.03013153,0.031858824,0.027770996,77.65593116,12.83915598,5.86
152145518849,0.17743377,-0.7649048,10.135539,0.011328125,0.009062195,-0.013032531,77.65593116,12.83915598,5.86
152145518871,-0.041278075,-0.74909973,9.616358,-0.0146133425,-0.0286026,-0.006326294,77.65598076,12.83915229,5.28
152145518893,-0.048937988,-1.0488541,9.697522,-0.008117676,-0.030787658,0.024520874,77.65598076,12.83915229,5.28
152145518915,-0.093710326,-0.9606308,9.567995,-0.007209778,0.037771605,0.07602692,77.65598076,12.83915229,5.28
152145518937,0.302771,-0.9207657,10.258006,0.0028030395,0.07723999,0.01669159,77.65598076,12.83915229,5.28
152145518959,0.3692108,-1.0714843,9.822863,0.08675232,0.03159027,-0.07466278,77.65602911,12.83914689,5.28
152145518981,0.14654846,-1.6957718,9.279015,-0.07964935,-0.03658905,-0.08670197,77.65602911,12.83914689,5.28
152145519003,-0.09850006,-1.3177246,10.1119585,-0.022175599,-0.06348877,-0.036204528,77.65602911,12.83914689,5.28
152145519025,-0.19665985,-0.74993896,10.079277,0.08946838,-0.026843261,0.029211426,77.65602911,12.83914689,5.28
152145519047,-0.03302002,-0.37668306,10.054135,0.28121337,0.026745606,0.07831726,77.65606407,12.83914192,4.12
152145519069,0.20101623,-1.7496369,7.5320845,-0.3764328,0.012046814,0.02420044,77.65606407,12.83914192,4.12
152145519091,-0.039361574,0.20750275,11.935385,-0.3650879,-0.044895936,-0.005256653,77.65606407,12.83914192,4.12
152145519113,-0.23509064,0.9431244,8.173851,0.5141861,0.03361664,0.043003846,77.65606407,12.83914192,4.12
152145519135,0.047186278,-0.19459991,12.15002,-0.08513336,0.02136078,0.03186798,77.65606407,12.83914192,4.12
152145519157,-0.030859375,0.8402969,8.379992,-0.012536621,0.012307739,0.004118347,77.65609573,12.83913172,3.41
152145519179,-0.09610443,0.41855773,11.02738,-0.005293274,0.042726137,-0.0100540165,77.65609573,12.83913172,3.41
152145519201,-0.0779068,0.9541397,9.09969,-0.015197754,0.066641234,-0.008081054,77.65609573,12.83913172,3.41
152145519223,0.14487152,0.58495027,10.349942,0.014897156,0.08735962,-0.07413025,77.65609573,12.83913172,3.41
152145519245,0.3756714,0.660849,9.896001,-0.02484436,9.094238E-4,-0.16313477,77.65609573,12.83913172,3.41
152145519267,-0.27985993,0.5612472,9.471271,0.076733395,-0.10114594,-0.18779144,77.65612719,12.83912945,3.55
152145519289,-0.1678131,0.4259781,9.925931,-0.01834259,-0.13337097,-0.044888306,77.65612719,12.83912945,3.55
152145519311,-0.10783692,0.38383943,9.548721,0.020169068,-0.13837738,-0.00259552,77.65612719,12.83912945,3.55
152145519333,-0.49905396,0.43998566,9.989016,0.08243561,-0.0934784,0.112350464,77.65612719,12.83912945,3.55
152145519355,-0.14303131,0.27969056,9.81484,-0.043218993,-0.0015960693,0.17307281,77.65617341,12.83911624,4.61
152145519377,-0.12878723,0.54760283,9.786467,-0.0023590089,0.06078186,0.13839722,77.65617341,12.83911624,4.61
152145519399,0.06311035,0.3114151,9.901029,-0.006730652,0.086351015,0.08929138,77.65617341,12.83911624,4.61
152145519421,0.19143982,0.3154846,9.64772,-0.009394837,0.113565065,0.043218993,77.65617341,12.83911624,4.61
152145519444,0.3346161,0.3266159,9.952864,0.0046157837,0.07313843,-0.055755615,77.65617341,12.83911624,4.61
152145519466,0.27140656,0.24353638,9.664363,-0.0044403076,-0.028121948,-0.09799347,77.65622321,12.83911094,5.26
152145519488,-0.0819809,0.34265748,9.645689,0.012713623,-0.112011716,-0.07386322,77.65622321,12.83911094,5.26
152145519510,-0.27028197,0.15579224,9.895642,-0.0017745972,-0.1001358,0.035546876,77.65622321,12.83911094,5.26
152145519532,-0.15524444,-0.006175232,9.493177,8.865356E-4,-0.005960083,0.09823761,77.65622321,12.83911094,5.26
152145519554,-0.02930603,0.12155457,9.846082,-0.014349366,0.063015744,0.084812924,77.65627236,12.83910846,5.37
152145519576,0.25608367,0.093421936,9.516637,0.012713623,0.054283142,0.017221069,77.65627236,12.83910846,5.37
152145519598,0.14331512,0.15147857,9.783353,-0.017492676,-8.4838865E-4,-0.02683258,77.65627236,12.83910846,5.37
152145519620,-0.0021331788,0.10132446,9.829802,-0.010618592,-0.009744262,0.003213501,77.65627236,12.83910846,5.37
152145519642,0.08358002,0.043385316,9.972735,-0.009819031,-0.034617614,0.0017211915,77.65627236,12.83910846,5.37
152145519664,-0.124354556,0.017523194,9.96555,0.04914551,-0.03350067,0.041563414,77.65632409,12.83910729,5.6
152145519702,0.03653412,-0.06340027,9.640538,-0.03996887,-0.012301636,0.04790344,77.65632409,12.83910729,5.6
152145519724,0.010676575,0.122270204,9.83004,0.011486816,0.022750854,0.052964784,77.65632409,12.83910729,5.6
152145519746,0.09208069,-0.08961487,9.860087,-0.011576843,0.05188904,0.03240204,77.65632409,12.83910729,5.6
152145519768,-0.06019287,0.1651291,9.668909,0.0028579712,0.07420502,0.023347473,77.65638315,12.83910288,6.19
152145519790,0.11099243,0.077738956,10.244955,-0.005718994,0.078466795,-0.018360902,77.65638315,12.83910288,6.19
152145519812,0.2289093,0.008309936,9.765039,-0.009074402,0.007676697,-0.07247772,77.65638315,12.83910288,6.19
152145519834,0.09902344,-0.10589447,9.469953,-0.0012420655,-0.060025025,-0.06773987,77.65638315,12.83910288,6.19
152145519856,-0.20420074,0.33906707,9.699079,0.036520384,-0.102211,-0.024485778,77.65638315,12.83910288,6.19
152145519878,-0.15524292,-0.10625305,10.097113,0.007809448,-0.07281037,0.025317382,77.65644485,12.83909614,6.41
152145519900,-0.117060855,-0.040776063,9.689024,-0.010722351,-0.029666137,0.06542816,77.65644485,12.83909614,6.41
152145519922,-0.10700226,0.013336182,9.881755,0.012287903,0.044165038,0.07714691,77.65644485,12.83909614,6.41
152145519944,0.07975159,-0.026049804,9.787184,-0.012910461,0.07654724,0.046308897,77.65644485,12.83909614,6.41
152145519966,0.079508975,-0.043289185,9.786345,0.0065841675,0.07702637,0.0019363404,77.65650877,12.83909119,6.7
152145519988,0.09232025,-0.10397949,9.849317,-0.03368225,0.058917236,-0.022407532,77.65650877,12.83909119,6.7
152145520010,0.08693085,0.013813782,9.780355,0.032048035,0.024508666,-0.050430298,77.65650877,12.83909119,6.7
152145520032,0.032583617,-0.11511078,9.971417,-0.0509964,-0.008091736,-0.05767212,77.65650877,12.83909119,6.7
152145520054,0.031866454,-0.054060362,9.57326,0.021128844,-0.033454895,-0.04259796,77.65650877,12.83909119,6.7
152145520076,0.07100983,0.009625244,10.324564,0.04600525,-0.06668548,-0.03188934,77.65656876,12.83908849,6.89
152145520098,-0.033258058,-0.075128175,9.686386,-1.8310548E-5,-0.101838686,-0.017721558,77.65656876,12.83908849,6.89
152145520120,-0.11537476,-0.06459503,9.566318,-0.027667236,-0.07552643,0.04784851,77.65656876,12.83908849,6.89
152145520142,-0.15655975,-0.06531525,9.912639,0.029599,-0.023594666,0.07251282,77.65656876,12.83908849,6.89
152145520164,0.06203308,-0.10074768,10.045278,-0.0020431518,0.030740356,0.06793213,77.65663263,12.83908163,6.94
152145520187,0.14858398,0.07905731,9.782994,-0.028089905,0.034947205,0.034216307,77.65663263,12.83908163,6.94
152145520208,0.12763214,0.010221863,9.913115,0.028587341,0.023550415,0.016638184,77.65663263,12.83908163,6.94
152145520231,0.018815612,-0.16455536,9.797602,-0.010671997,0.009007263,0.02569275,77.65663263,12.83908163,6.94
152145520253,0.02348938,0.14884949,9.942688,0.045204163,0.030419922,0.025856018,77.65663263,12.83908163,6.94
152145520275,0.11399078,-0.050587464,9.642817,-0.050462343,0.0407547,0.017224122,77.65669833,12.83908176,7.08
152145520297,0.22615509,0.18081054,9.178579,-0.022120666,0.028025817,-0.014208985,77.65669833,12.83908176,7.08
152145520319,0.11602173,0.0054367064,9.839976,-0.021113586,-0.013845826,-0.030773927,77.65669833,12.83908176,7.08
152145520301,-0.20121154,0.2963318,9.6848345,0.013728333,-0.012620544,0.010510254,77.65669833,12.83908176,7.08
152145520323,-0.04331665,0.19625092,10.255849,0.021873474,0.029406738,0.019781495,77.65677005,12.83907821,7.48
152145520345,0.10058136,0.091748044,9.88415,-0.011096192,0.04650879,-0.009094238,77.65677005,12.83907821,7.48
152145520367,0.13852692,0.15758514,9.76133,0.027842712,-0.0018630981,-0.036953736,77.65677005,12.83907821,7.48
152145520389,0.02492218,0.13783722,9.947359,0.0033370971,-0.038189698,-0.025022889,77.65677005,12.83907821,7.48
152145520411,-0.065460205,0.17099762,9.83962,-0.0109375,-0.05102539,-0.003927612,77.65677005,12.83907821,7.48
152145520433,-0.079582214,0.12885895,9.851709,0.025231933,-0.026683044,0.018717956,77.65684157,12.8390788,7.79
152145520455,-0.023085022,0.052601624,9.891576,-0.0033187866,-0.012144471,0.018130492,77.65684157,12.8390788,7.79
152145520477,-0.04127655,0.02375183,9.776407,-0.014294433,-0.0016448975,0.023242187,77.65684157,12.8390788,7.79
152145520499,-0.06342621,-0.0692627,9.739421,-0.010726929,0.019822692,0.031018067,77.65684157,12.8390788,7.79
152145520521,0.05592804,-0.0418457,9.865356,0.012286377,0.036868285,0.0155181885,77.65684157,12.8390788,7.79
152145520543,0.05293274,-0.06423645,9.8919325,0.0076538087,0.043952942,-0.003869629,77.65691859,12.83907987,8.24
152145520565,0.13134614,0.017889405,9.648921,-0.015519714,0.015667725,-0.023316955,77.65691859,12.83907987,8.24
152145520587,0.0076843263,-0.059207153,9.695845,-0.021540832,-0.01832428,-0.024862671,77.65691859,12.83907987,8.24
152145520609,-0.13955994,-0.18657684,9.660654,0.0012054443,-0.015870666,0.007157898,77.65691859,12.83907987,8.24
152145520631,-0.08353424,-0.22189179,9.974172,0.01953125,0.024456788,0.01914215,77.65699717,12.83907793,8.59
152145520653,0.07460175,-0.21160126,9.912521,-0.0038024902,0.06930542,-0.0032302856,77.65699717,12.83907793,8.59
152145520675,0.22699738,-0.27109376,9.775332,-0.008648681,0.021368409,-0.05229187,77.65699717,12.83907793,8.59
152145520697,0.0033721924,-0.2464325,9.951546,0.023580933,-0.031214904,-0.04968109,77.65699717,12.83907793,8.59
152145520719,0.027557373,-0.48753205,9.793529,0.016015625,-0.04410553,-0.024859618,77.65699717,12.83907793,8.59
152145520742,-0.02942505,-0.2914459,9.94628,0.02890625,-0.05453949,-0.005418396,77.65707231,12.839076,8.4
152145520763,0.028392028,-0.35704955,9.67394,-0.09509583,-0.036483765,0.0065719606,77.65707231,12.839076,8.4
152145520786,-0.08533172,-0.2919281,9.548482,0.018357849,-0.008303833,0.022177124,77.65707231,12.839076,8.4
152145520808,-0.04091797,-0.35094148,10.210721,0.013085937,0.034577943,0.018128967,77.65707231,12.839076,8.4
152145520829,0.09758911,-0.3811081,9.915756,0.032582093,0.037345886,-0.0044036866,77.65715083,12.83907109,8.39
152145520852,0.13086548,-0.40325624,9.712964,-0.025961304,-0.0014343262,-0.024916077,77.65715083,12.83907109,8.39
152145520874,0.09100189,-0.3268799,9.646289,-0.01706543,-0.01576538,-0.013571167,77.65715083,12.83907109,8.39
152145520896,0.023246765,-0.3700943,9.852545,0.0018432618,-0.028439332,-0.011010742,77.65715083,12.83907109,8.39
152145520918,-0.06282959,-0.36398774,9.834949,0.0065338137,-0.03696289,0.014186096,77.65715083,12.83907109,8.39
152145520940,0.15947723,-0.4558075,9.833394,-0.0035858154,-0.008148193,0.012802124,77.65722785,12.83906906,8.13
152145520962,0.074961856,-0.3096405,10.001587,0.02027893,-0.0063842773,0.010992432,77.65722785,12.83906906,8.13
152145520984,0.05880127,-0.45568848,9.750435,0.017823791,-0.0054855347,0.016690064,77.65722785,12.83906906,8.13
152145521006,-0.05720062,-0.44874573,9.685911,-0.021647643,-0.0014343262,0.026333619,77.65722785,12.83906906,8.13
152145521028,-0.01446228,-0.32867736,9.659815,-0.0012939454,0.027703857,0.0322464,77.6572993,12.83906793,8.0
152145521050,0.11961365,-0.45580903,9.970581,-0.015841674,0.062432863,0.016960144,77.6572993,12.83906793,8.0
152145521072,0.103933714,-0.9423157,9.724098,-0.02382965,0.07564239,-0.0049407957,77.6572993,12.83906793,8.0
152145521094,-0.01626129,-0.6878082,9.674658,-0.029632568,0.07883911,-0.02400818,77.6572993,12.83906793,8.0
152145521116,0.3109146,-0.9827744,10.083826,0.03466034,0.0803833,-0.06321106,77.6572993,12.83906793,8.0
152145521138,0.27236634,-0.8664185,9.999669,0.008346558,0.010017395,-0.10209198,77.65737011,12.83906871,7.75
152145521160,0.20197907,-0.90388334,9.955137,0.02778778,-0.072703555,-0.11343689,77.65737011,12.83906871,7.75
152145521182,-0.098739624,-0.8191284,9.924014,0.013510132,-0.10769959,-0.056019593,77.65737011,12.83906871,7.75
152145521204,-0.17068633,-0.7925537,9.712608,0.013298035,-0.07291718,0.0034255981,77.65737011,12.83906871,7.75
152145521226,0.0022979737,-0.7610718,9.808973,-0.01557312,-0.017468262,0.02729187,77.6574315,12.8390656,7.16
152145521248,0.19227906,-0.7802246,9.882474,0.007865906,2.166748E-4,-0.0025924682,77.6574315,12.8390656,7.16
152145521270,0.22161102,-0.9895996,9.867032,0.0023254394,-0.04601593,-0.023533631,77.6574315,12.8390656,7.16
152145521292,0.10249634,-1.1646163,9.806699,0.0022735596,-0.058851622,0.007955933,77.6574315,12.8390656,7.16
152145521314,0.19156036,-1.0769898,9.706737,-0.0023101806,-0.08900452,0.01663971,77.6574315,12.8390656,7.16
152145521336,-0.015177918,-1.0917145,9.82106,0.027149964,-0.075474545,0.07320251,77.6574938,12.83906379,6.76
152145521358,0.037730407,-1.0684891,9.735949,-0.0033233643,-0.043778993,0.10569458,77.6574938,12.83906379,6.76
152145521380,-0.026913453,-1.1108643,9.633474,0.0076522827,-0.0048431396,0.13504028,77.6574938,12.83906379,6.76
152145521402,0.16067505,-1.0973403,9.743968,0.0030166626,0.035853576,0.13584137,77.6574938,12.83906379,6.76
152145521424,0.10106049,-0.9650574,10.0606,0.022781372,0.056521606,0.11906433,77.65755511,12.8390676,6.24
152145521447,0.1611557,-0.93129885,9.618994,-0.029685974,0.07117157,0.094133,77.65755511,12.8390676,6.24
152145521468,0.17121124,-0.6441147,9.732241,0.0023269653,0.078251645,0.05552063,77.65755511,12.8390676,6.24
152145521491,0.1628296,-0.66865236,10.1701355,0.03828125,0.084057614,0.026435852,77.65755511,12.8390676,6.24
152145521513,0.15397187,-0.8342117,9.8543415,-0.010192871,0.069252014,-0.004777527,77.65755511,12.8390676,6.24
152145521535,0.13816833,-0.8955048,9.695486,-0.019194031,0.03921051,-0.034820557,77.65760056,12.83907428,5.08
152145521557,0.05101776,-0.72515714,9.69393,-0.004811096,0.008848572,-0.055592347,77.65760056,12.83907428,5.08
152145521579,-0.029426575,-0.7019348,9.596005,-0.03160553,0.01348114,-0.037857056,77.65760056,12.83907428,5.08
152145521601,0.007443237,-0.5680984,9.961601,-0.0089675905,0.018913269,-0.048562624,77.65760056,12.83907428,5.08
152145521623,0.067539975,-0.64722747,9.668673,0.0034454346,0.0133804325,-0.059803773,77.65764058,12.83908016,4.47
152145521645,-0.034814455,-0.7253952,9.8135195,-0.005932617,-0.018428039,-0.073704526,77.65764058,12.83908016,4.47
152145521667,-0.14949799,-0.77699435,9.592657,-3.3721924E-4,-0.01752014,-0.044674683,77.65764058,12.83908016,4.47
152145521689,0.019413758,-0.91130984,9.86823,0.011116028,-0.015338135,-0.033062745,77.65764058,12.83908016,4.47
152145521711,0.012232971,-0.5230835,10.0291195,0.022676086,-0.017201234,-0.033703614,77.65764058,12.83908016,4.47
152145521733,-0.04762573,-0.64698637,9.6901,0.016601562,-0.027322387,-0.029069519,77.65767939,12.83907978,4.15
152145521755,-0.042596437,-0.84115446,9.883311,-0.018078614,-0.037709046,-0.014955139,77.65767939,12.83907978,4.15
152145521777,-0.2372467,-0.5398453,9.688902,0.02880249,-0.028656006,0.024681091,77.65767939,12.83907978,4.15
152145521799,-0.25316772,-0.7656204,9.880196,-0.004600525,0.017156983,0.08140564,77.65767939,12.83907978,4.15
152145521821,-0.047862243,-0.5732452,9.609174,-0.020368958,0.05417633,0.07118072,77.65767939,12.83907978,4.15
152145521843,0.07125244,-0.35549012,9.92952,4.623413E-4,0.062217712,0.0040100096,77.65771621,12.8390779,3.84
152145521865,-0.10723877,0.11676788,9.91276,0.02182312,0.051512145,-0.04563751,77.65771621,12.8390779,3.84
152145521887,0.17922974,-0.052622985,10.09951,0.02837677,0.032284547,-0.09330597,77.65771621,12.8390779,3.84
152145521909,0.10740204,0.05152588,9.590739,0.010528564,-0.054966737,-0.15876465,77.65771621,12.8390779,3.84
152145521931,-0.2766327,0.088754274,9.798437,0.0048812865,-0.10892334,-0.101509094,77.65774747,12.83907736,3.66
152145521953,-0.3415161,0.20367889,9.723742,-0.009873962,-0.11478271,0.0068344115,77.65774747,12.83907736,3.66
152145521975,-0.38796082,0.08971252,9.835788,-0.024473572,-0.09283905,0.09157868,77.65774747,12.83907736,3.66
152145521997,-0.45715332,0.26640472,9.847636,0.02230072,-0.029771423,0.16779633,77.65774747,12.83907736,3.66
152145522019,-0.46744996,0.39736938,9.952146,0.013087464,0.06408539,0.2062561,77.65774747,12.83907736,3.66
152145522042,0.086335756,0.37892914,9.465161,-0.013441468,0.1493042,0.15107727,77.65778346,12.8390734,3.84
152145522063,0.39818114,0.42705384,10.1533785,-0.038104247,0.097587585,-0.044674683,77.65778346,12.8390734,3.84
152145522085,-9.3536376E-4,0.5154007,9.593971,-0.0044372557,0.007675171,-0.1123703,77.65778346,12.8390734,3.84
152145522107,-0.1663742,0.40646362,10.051623,0.010261536,-0.0201828,-0.06480865,77.65778346,12.8390734,3.84
152145522129,-0.12220307,0.32829133,9.87182,0.011006164,2.7160643E-4,-0.028269958,77.6578249,12.83907232,4.44
152145522152,0.034977723,0.11185455,9.856737,0.010314941,0.007307434,-0.03918762,77.6578249,12.83907232,4.44
152145522174,-0.101493835,0.2908264,9.695726,0.004296875,-0.0039382936,-0.044407655,77.6578249,12.83907232,4.44
152145522196,0.056646727,0.26544648,9.76444,-0.03277893,-0.01618805,-0.054208376,77.6578249,12.83907232,4.44
152145522218,-0.030744934,0.14477539,9.626773,0.020594787,-0.0438324,-0.05064087,77.6578249,12.83907232,4.44
152145522240,-0.1287857,0.2830414,10.161995,0.018305968,-0.064021304,-0.02603302,77.65786916,12.83906894,4.99
152145522262,-0.06737671,0.13819274,9.696803,0.016227722,-0.06178131,0.016053772,77.65786916,12.83906894,4.99
152145522284,-0.21820983,0.26065826,9.808253,0.0020584106,-0.02902832,0.051953126,77.65786916,12.83906894,4.99
152145522306,-0.03780823,0.07690124,9.513288,-0.023934936,3.2653808E-4,0.05898285,77.65786916,12.83906894,4.99
152145522328,-0.02212677,0.31416932,9.692616,9.94873E-4,0.020620728,0.043377686,77.65792018,12.83906686,5.4
152145522350,0.0066055297,0.07210998,9.884273,-0.020046998,0.027278136,0.020794678,77.65792018,12.83906686,5.4
152145522372,-8.163452E-4,0.12909393,9.639943,-0.027131652,0.006665039,0.0107772825,77.65792018,12.83906686,5.4
152145522394,-0.0075164796,0.027578736,9.742172,0.023312379,4.3182372E-4,0.005770874,77.65792018,12.83906686,5.4
152145522416,0.041801453,0.1308899,9.917668,0.01404419,-0.0044158935,0.011630249,77.65792018,12.83906686,5.4
152145522438,0.032463074,0.011300659,9.878761,0.007762146,-0.0025543212,0.01040802,77.65797279,12.8390641,5.69
152145522460,0.029110719,-0.0025863647,9.607618,0.006161499,-0.015072632,0.011207581,77.65797279,12.8390641,5.69
152145522482,-0.05420685,0.10215912,9.933228,0.003604126,-0.019334411,0.018980408,77.65797279,12.8390641,5.69
152145522504,-0.019013977,-0.018746948,9.756659,0.015963744,-0.01635437,0.027346801,77.65797279,12.8390641,5.69
152145522526,-0.15261078,-0.022337342,9.678487,-0.01909027,0.008847046,0.054879762,77.65802914,12.83906642,6.15
152145522548,-0.01590271,0.023268128,9.716078,-0.0117904665,0.067921445,0.057385255,77.65802914,12.83906642,6.15
152145522570,0.0997406,-0.07764282,10.010922,0.0087677,0.0953476,0.009606933,77.65802914,12.83906642,6.15
152145522592,0.09171905,-0.16910553,10.006372,-0.010620117,0.095617674,-0.031359863,77.65802914,12.83906642,6.15
152145522614,0.13661346,-0.066273496,9.746244,-0.020793151,0.07250061,-0.06928559,77.65802914,12.83906642,6.15
152145522636,0.15684204,-0.23997192,9.604868,0.006375122,0.030636597,-0.10246887,77.6580889,12.83906914,6.57
152145522658,0.15038148,-0.11953888,9.826686,-0.013444519,-0.055181883,-0.1243042,77.6580889,12.83906914,6.57
152145522680,-0.05241089,-0.3264038,9.733556,0.041635133,-0.12069397,-0.08835144,77.6580889,12.83906914,6.57
152145522702,-0.20599976,-0.30592805,9.853503,-0.0021530152,-0.13502045,-0.011381531,77.6580889,12.83906914,6.57
152145522724,-0.16457824,-0.44407654,9.806936,0.0033920289,-0.07019806,0.04987488,77.65815161,12.83906693,6.69
152145522747,0.006008911,-0.42935333,9.792093,-7.1716306E-5,-0.030201722,0.04816742,77.65815161,12.83906693,6.69
152145522768,0.036175538,-0.4213333,9.64928,0.012498474,-0.010385131,0.047477722,77.65815161,12.83906693,6.69
152145522790,0.08202515,-0.45975646,9.707578,-0.028889466,-0.016137695,0.04588165,77.65815161,12.83906693,6.69
152145522812,-0.026434327,-0.23578033,9.631081,0.012072754,-0.0021789551,0.059143066,77.65815161,12.83906693,6.69
152145522835,-0.24550171,0.08898926,10.08275,0.026452636,0.058917236,0.08902588,77.65821484,12.83906724,6.55
152145522857,0.0848999,-0.046995543,9.630724,0.008396911,0.1026474,0.045721434,77.65821484,12.83906724,6.55
152145522879,0.16366729,0.014772033,9.740377,-0.032084655,0.08379211,-0.014208985,77.65821484,12.83906724,6.55
152145522901,0.15109864,0.1204773,9.853145,0.010900879,0.07260895,-0.047442626,77.65821484,12.83906724,6.55
152145522923,0.16187134,0.0036361695,9.70255,-0.003161621,-0.012620544,-0.090481564,77.65827577,12.83906689,6.67
152145522945,-0.055644225,0.10994415,9.915396,-0.0039627077,-0.072064206,-0.056660462,77.65827577,12.83906689,6.67
152145522967,-0.11513825,0.03727875,10.274885,0.07604523,-0.078242496,-0.024490356,77.65827577,12.83906689,6.67
152145522989,-0.055401612,-0.0705841,9.547647,-0.04710541,-0.08287506,0.011631775,77.65827577,12.83906689,6.67
152145523011,-0.09371185,0.19697265,9.782637,-0.053123474,-0.037602235,0.05041046,77.65827577,12.83906689,6.67
152145523033,-0.08616791,0.032608032,10.173727,0.063848875,0.028128052,0.060690306,77.65833614,12.83906328,6.99
152145523055,0.12559967,-0.103019714,9.886546,-0.018339539,0.044537354,0.040394593,77.65833614,12.83906328,6.99
152145523077,0.11530457,-0.11331482,9.813164,0.016600037,0.060250856,0.017756652,77.65833614,12.83906328,6.99
152145523099,0.18186493,-0.09847412,9.913481,-0.006359863,0.06083374,-0.005847168,77.65833614,12.83906328,6.99
152145523121,0.14822236,-0.16311646,9.67346,-0.02569275,0.038996886,-0.03514099,77.65833614,12.83906328,6.99
152145523143,0.07149048,-0.002824402,9.965195,0.005682373,0.00362854,-0.039134216,77.65840707,12.83906404,8.22
152145523165,0.03006897,-0.2740906,10.182587,0.035565186,-0.035206605,-0.03679199,77.65840707,12.83906404,8.22
152145523187,-0.04666748,-0.2578064,9.636353,0.00418396,-0.05081024,-0.0076553347,77.65840707,12.83906404,8.22
152145523209,-0.05240631,-0.37919617,9.2615385,-0.050408937,-0.0046310425,0.007901001,77.65840707,12.83906404,8.22
152145523231,0.048265077,-0.020663451,9.293379,-0.06292267,0.04506836,0.02217865,77.65848375,12.8390642,7.43
152145523253,-0.026431274,-0.17281036,10.666692,0.09942627,0.07345734,-0.026515197,77.65848375,12.8390642,7.43
152145523275,0.0531723,-0.3388504,9.331688,-0.08119507,0.0021865845,-0.046965025,77.65848375,12.8390642,7.43
152145523297,0.08142547,-0.13618469,9.82178,0.055108644,0.008741761,-0.04520874,77.65848375,12.8390642,7.43
152145523319,0.13889007,-0.31143647,10.138412,-0.026602173,-0.020715332,-0.056393433,77.65848375,12.8390642,7.43
152145523341,0.06406708,-0.24248657,9.711649,0.03087921,-0.028121948,-0.04387207,77.65854702,12.83906472,7.24
152145523363,-0.0036880493,-0.38111115,9.626056,-0.030433655,-0.06002655,-0.02821808,77.65854702,12.83906472,7.24
152145523385,-0.15512237,-0.18514404,9.9197035,0.013192749,-0.044581603,0.0052368166,77.65854702,12.83906472,7.24
152145523407,-0.003927612,-0.62627566,10.102982,-8.163452E-4,-0.029081726,0.008489991,77.65854702,12.83906472,7.24
152145523429,0.036894225,-0.78345644,9.568233,-0.007424927,-0.013365174,0.014776612,77.65861262,12.83906692,7.63
152145523452,0.06861725,-0.79398954,9.532437,-0.03442993,-0.0016479492,0.009396362,77.65861262,12.83906692,7.63
152145523473,0.06765747,-0.6954681,9.819983,0.002911377,0.00597229,0.0038009644,77.65861262,12.83906692,7.63
152145523496,0.17982788,-0.8079971,9.8142395,0.0015274048,-0.015924072,-0.007974243,77.65861262,12.83906692,7.63
152145523518,0.104766846,-0.3712921,9.786463,0.03625641,-0.045698546,-0.0016357421,77.65861262,12.83906692,7.63
152145523539,-0.04738159,-0.20728913,9.82238,-0.002206421,-0.04042511,0.028781127,77.65868247,12.83906721,7.24
152145523562,-0.02882843,-0.24380036,9.662809,-0.017381286,-0.016775513,0.048596192,77.65868247,12.83906721,7.24
152145523584,-0.02822876,-0.28294373,9.859011,0.03518982,0.01598816,0.05791626,77.65868247,12.83906721,7.24
152145523606,-0.02930603,-0.26762238,10.01547,-0.011209106,0.04134216,0.055519104,77.65868247,12.83906721,7.24
152145523628,0.13265991,-0.2701355,9.6816,-0.020739745,0.08762665,0.039273072,77.65875092,12.8390634,7.34
152145523650,0.23908845,-0.6660202,9.226222,-0.08374634,0.07345734,-0.021078492,77.65875092,12.8390634,7.34
152145523672,0.320607,-0.6363327,10.276799,0.042648315,0.004373169,-0.058789063,77.65875092,12.8390634,7.34
152145523694,0.16306762,-0.80572355,10.087779,0.020274352,-0.04751434,-0.049894713,77.65875092,12.8390634,7.34
152145523716,-0.046066284,-0.43653718,9.327977,0.0053634644,-0.06711273,-0.0039260862,77.65875092,12.8390634,7.34
152145523738,-0.0018936157,-0.4707718,9.410095,0.0029663085,-0.07238312,2.3193359E-4,77.65881862,12.83906411,7.34
152145523760,-0.22970124,-0.34591675,9.836385,0.010314941,-0.028704833,0.055947877,77.65881862,12.83906411,7.34
152145523782,0.036654662,-0.45520782,9.873375,-0.011842346,0.02823944,0.051260374,77.65881862,12.83906411,7.34
152145523804,0.13601379,-0.37931365,9.823336,0.026086425,0.025732422,0.01940918,77.65881862,12.83906411,7.34
152145523826,0.20580444,-0.3868576,9.946516,-0.015626526,0.030795287,0.012698364,77.65888217,12.83906419,7.23
152145523848,0.38333893,-0.4907669,9.479769,6.744385E-4,-0.017999267,-0.0448349,77.65888217,12.83906419,7.23
152145523870,0.42846984,-0.28474274,9.7779665,-0.0030517578,-0.13448945,-0.04446411,77.65888217,12.83906419,7.23
152145523892,-0.20180969,-0.4817856,9.821422,0.015908813,-0.20815125,0.022657776,77.65888217,12.83906419,7.23
152145523914,-0.02846985,-0.3442398,10.101544,0.06864166,-0.1595749,0.14872894,77.65888217,12.83906419,7.23
152145523936,0.34383088,-0.57204896,10.215509,0.035458375,-0.116967775,0.14090271,77.65895142,12.83906335,7.29
152145523958,0.31019288,-0.43689117,9.483722,0.052182008,-0.14588928,0.15320587,77.65895142,12.83906335,7.29
152145523980,0.08824921,-0.50536954,10.439603,0.049201965,-0.12053833,0.2128067,77.65895142,12.83906335,7.29
152145524002,0.0705307,-0.5768326,9.742534,0.06512604,-0.051344298,0.27550048,77.65895142,12.83906335,7.29
152145524024,-0.10855713,-0.3523758,10.356407,0.06949463,0.0839508,0.33264923,77.65901824,12.8390771,7.24
152145524046,0.0765213,-0.556604,9.952745,0.04536438,0.2829407,0.32130432,77.65901824,12.8390771,7.24
152145524069,0.67447054,-0.5799484,10.011164,-0.009925842,0.3554352,0.16977234,77.65901824,12.8390771,7.24
152145524090,0.8045975,-0.9834946,9.911566,0.0070663453,0.2521576,-0.013409424,77.65901824,12.8390771,7.24
152145524112,0.52986145,-0.6284332,9.647003,-0.01232605,0.08224793,-0.07967071,77.65901824,12.8390771,7.24
152145524134,0.15732269,-0.9190887,9.649038,0.001260376,-5.279541E-4,-0.056977846,77.65908014,12.83910432,6.85
152145524157,0.22651367,-0.6690124,9.666634,-0.013920593,-0.040745545,-0.023957824,77.65908014,12.83910432,6.85
152145524179,0.091362,-1.1533616,9.959088,6.7596434E-4,-0.034994505,-0.0039230348,77.65908014,12.83910432,6.85
152145524201,0.009002686,-0.80871737,9.497847,-0.03213806,-0.026896667,0.028514098,77.65908014,12.83910432,6.85
152145524223,0.16857605,-0.68074644,10.070063,0.021980286,0.033190917,0.03363037,77.65913893,12.83912685,6.85
152145524245,0.19659118,-0.98469085,9.800232,0.017668152,0.030793762,3.3416747E-4,77.65913893,12.83912685,6.85
152145524267,0.065740965,-1.1032059,9.198809,-0.07474823,0.0039993287,6.5612793E-4,77.65913893,12.83912685,6.85
152145524289,0.046351623,-0.66673887,10.058687,-0.0040649413,0.016574096,0.0030517578,77.65913893,12.83912685,6.85
152145524311,0.03677063,-0.801651,9.955137,0.02006073,0.06621399,0.009497071,77.65913893,12.83912685,6.85
152145524333,0.3348511,-0.86653745,10.002182,-0.087638855,0.050553896,-0.049731445,77.65917718,12.83914157,5.41
152145524355,0.42882386,-0.6234024,9.869547,0.105659485,-0.005001831,-0.102996826,77.65917718,12.83914157,5.41
152145524377,0.2655426,-0.8509735,9.785627,0.0057891845,-0.16884156,-0.1578064,77.65917718,12.83914157,5.41
152145524399,-0.27363434,-0.44467926,10.114233,0.058894347,-0.1798706,0.022177124,77.65917718,12.83914157,5.41
152145524421,0.27116853,-1.0387986,9.493299,-0.038742065,-0.15616913,0.08188782,77.65917718,12.83914157,5.41
152145524443,-0.21198578,-0.57552034,9.7825165,0.1261673,-0.11435547,0.16247407,77.65921444,12.8391481,4.05
152145524465,-0.1936676,-1.0149734,11.51891,-0.080926515,-0.08831024,0.20093231,77.65921444,12.8391481,4.05
152145524487,-0.21473846,-0.7620285,8.264952,0.071035765,0.04213562,0.3206131,77.65921444,12.8391481,4.05
152145524509,0.05975647,-0.45700836,10.836324,-0.11549225,0.1629959,0.3015976,77.65921444,12.8391481,4.05
152145524531,0.28744966,-0.21231842,9.540942,0.11498108,0.23921052,0.17083435,77.65924381,12.83915812,3.97
152145524553,0.5254318,-0.12481079,10.582899,0.027149964,0.17503509,-9.4299315E-4,77.65924381,12.83915812,3.97
152145524575,0.32336122,0.23001099,9.305832,0.0068542482,0.051940918,-0.104811095,77.65924381,12.83915812,3.97
152145524597,0.0740036,-0.090574645,9.930478,-0.060046386,-0.020986939,-0.094688416,77.65924381,12.83915812,3.97
152145524619,0.15612336,-0.005819702,9.178459,0.020437622,-0.09315796,-0.0757782,77.65924381,12.83915812,3.97
152145524641,-0.048338316,0.13867188,9.90893,-0.0064086914,-0.14412841,-0.022355651,77.65928773,12.83917907,4.65
152145524663,-0.083776854,0.40203246,9.921379,0.07769928,-0.15174408,0.0484375,77.65928773,12.83917907,4.65
152145524685,-0.33085784,0.14908448,10.060961,0.01947937,-0.12580872,0.13744049,77.65928773,12.83917907,4.65
152145524707,-0.12723084,0.25981903,9.981955,0.016868591,0.008790588,0.23480682,77.65928773,12.83917907,4.65
152145524729,0.4188919,0.009623718,10.056412,0.02118225,0.071595766,0.14766845,77.65933545,12.83919933,5.34
152145524751,0.113745116,0.1478897,9.275905,-0.0057159425,0.05907898,0.102070615,77.65933545,12.83919933,5.34
152145524773,0.13673095,0.24545594,10.131472,-0.015412902,0.06663971,0.08774567,77.65933545,12.83919933,5.34
152145524795,0.054249573,0.09473877,9.832913,-0.0056137084,0.044537354,0.063137814,77.65933545,12.83919933,5.34
152145524818,0.2083191,0.17554474,9.547647,0.009303284,-0.010275269,0.022387695,77.65933545,12.83919933,5.34
152145524839,0.2667343,0.28878936,10.362511,0.057774354,-0.109935,0.0057159425,77.65937875,12.83921643,4.93
152145524862,-0.22622986,-0.13726044,9.793048,-0.0025741577,-0.08782806,0.11789246,77.65937875,12.83921643,4.93
152145524884,0.016540527,0.19397736,9.733795,0.004135132,-0.018426513,0.16545716,77.65937875,12.83921643,4.93
152145524906,-0.01206665,-0.062321473,9.94628,-0.004811096,0.07659759,0.16103515,77.65937875,12.83921643,4.93
152145524928,0.34897918,0.12885436,9.33935,-0.030116271,0.08592377,0.09104614,77.65941101,12.839262,5.85
152145524950,0.2404007,-0.020301819,10.153975,-0.012535095,0.04442749,0.028411865,77.65941101,12.839262,5.85
152145524972,0.21681824,0.13436279,9.500719,0.017028809,-0.027108764,0.022180175,77.65941101,12.839262,5.85
152145524994,0.10033874,0.13543853,10.235617,0.0125518795,-0.055818178,0.04129944,77.65941101,12.839262,5.85
152145525016,0.029708862,0.009384155,9.668074,0.052235413,-0.04623108,0.08822174,77.65941101,12.839262,5.85
152145525038,0.120449826,-0.032154847,10.15757,-0.021751404,-0.009318543,0.11272278,77.65946932,12.83930908,6.47
152145525060,0.028752137,-0.111161806,9.556623,-7.019043E-5,0.019819641,0.10617523,77.65946932,12.83930908,6.47
152145525082,0.12870789,0.030810546,10.09747,0.025872802,0.05502777,0.097653195,77.65946932,12.83930908,6.47
152145525104,0.24088135,-0.20178528,10.004217,0.0068557737,0.055296324,0.06356201,77.65946932,12.83930908,6.47
152145525126,0.30743867,-0.16946106,9.493657,0.012712097,0.03292694,0.031178284,77.65950869,12.83935301,6.47
152145525148,0.14906159,0.094740294,10.1523,-0.037356567,-0.0060165403,0.028463745,77.65950869,12.83935301,6.47
152145525170,0.13086548,-0.10505676,9.817709,0.06310425,-0.0039382936,0.03501587,77.65950869,12.83935301,6.47
152145525192,0.19000244,-0.108529665,9.552791,-0.025907898,-0.05294342,0.033467103,77.65950869,12.83935301,6.47
152145525214,0.1011795,0.09976654,9.882353,0.057403564,-0.0506546,0.057650756,77.65950869,12.83935301,6.47
152145525236,0.10728149,-0.014079285,10.2905655,-0.013760376,-0.06711121,0.07059173,77.65953298,12.83941615,5.83
152145525258,0.029708862,-0.17221527,9.753306,0.042700194,-0.046443176,0.10958405,77.65953298,12.83941615,5.83
152145525280,0.06238861,-0.06699066,9.568594,-0.0667572,-0.005960083,0.13973236,77.65953298,12.83941615,5.83
152145525302,-0.066654965,0.07881775,10.043124,0.056443788,0.106271364,0.16758728,77.65953298,12.83941615,5.83
152145525324,0.2858902,-0.18023376,9.904141,-0.04092865,0.14786378,0.090992734,77.65953298,12.83941615,5.83
152145525346,0.32575378,0.14704895,9.647606,0.0022705079,0.114205934,0.008540344,77.65956594,12.83946619,6.26
152145525368,0.29128113,-0.17305145,9.705545,4.623413E-4,0.060780335,-0.024862671,77.65956594,12.83946619,6.26
152145525390,0.19299468,0.06433258,9.451639,-0.034640502,-0.015763855,-0.040144347,77.65956594,12.83946619,6.26
152145525412,0.05988159,-0.16467285,9.995959,0.013990784,-0.03781433,-0.0130905155,77.65956594,12.83946619,6.26
152145525434,0.17719269,-0.24631652,9.804903,-0.010246277,-0.059864808,0.0034271241,77.65958405,12.83951606,5.6
152145525457,0.028514098,-0.20214081,10.05366,0.028689574,-0.058909606,0.027716065,77.65958405,12.83951606,5.6
152145525478,-0.053970337,-0.2810318,9.431407,-0.023721313,-0.043675233,0.059835814,77.65958405,12.83951606,5.6
152145525500,-0.02380066,-0.034190368,10.042887,0.005041504,-0.0015411377,0.0803421,77.65958405,12.83951606,5.6
152145525522,0.12512055,-0.42743683,9.509575,-0.04486542,0.06818237,0.07320557,77.65962469,12.83955831,6.55
152145525544,0.16414337,0.27945405,10.085144,0.05990448,0.07606812,0.043110657,77.65962469,12.83955831,6.55
152145525567,0.22938843,-0.28318787,10.367541,0.0037643432,0.07575073,-0.011329651,77.65962469,12.83955831,6.55
152145525589,0.122364804,0.088157654,9.348688,-0.04912567,-0.019386292,-0.0260849,77.65962469,12.83955831,6.55
152145525611,0.13469544,-0.2830658,10.461513,0.05505829,-0.024768066,-0.018841553,77.65962469,12.83955831,6.55
152145525633,0.18150482,-0.08662109,9.498921,-0.027719116,-0.08591156,-0.0015808105,77.65965628,12.8395989,6.07
152145525655,-0.021401977,-0.105537415,9.823576,0.03173065,-0.086445615,0.031819154,77.65965628,12.8395989,6.07
152145525677,-0.049058534,-0.15641479,9.6579,-0.0042236326,-0.06934814,0.08401642,77.65965628,12.8395989,6.07
152145525699,-0.08497467,-0.12565002,9.733793,-0.029901123,0.003947449,0.11118164,77.65965628,12.8395989,6.07
152145525721,-0.011949157,-0.15701142,9.80538,-0.009713745,0.068344116,0.10734405,77.65965628,12.8395989,6.07
152145525743,0.19646911,0.019921875,9.958731,0.008877563,0.09263305,0.06297608,77.65969013,12.83965444,6.78
152145525765,0.1755188,-0.055020142,9.875769,-0.0074768066,0.09657135,0.024627686,77.65969013,12.83965444,6.78
152145525787,0.1648651,-0.1645523,9.692136,-0.0069976808,0.08522644,-0.002862549,77.65969013,12.83965444,6.78
152145525809,0.20113678,-0.055378724,9.9333515,0.005258179,0.035110474,-0.042704772,77.65969013,12.83965444,6.78
152145525831,0.11841583,0.013575745,10.011522,0.017987061,-0.017199706,-0.047869872,77.65971173,12.83972397,7.45
152145525853,-0.0982605,-0.06159973,9.63228,-0.019300843,-0.052252196,-0.027896117,77.65971173,12.83972397,7.45
152145525875,-0.18062134,0.049128722,9.801428,0.033329774,-0.033236694,0.014292908,77.65971173,12.83972397,7.45
152145525897,-0.08592834,-0.0023452758,9.887743,-0.014398193,-0.009689331,0.016427612,77.65971173,12.83972397,7.45
152145525919,-0.016734313,0.11484833,9.823817,-0.053814698,0.011671448,0.009870911,77.65971173,12.83972397,7.45
152145526009,-0.029064942,-0.22991638,9.802147,0.06358185,0.0060806274,-0.016656494,77.65971856,12.83979198,7.42
152145526031,-0.042834472,0.19601592,9.542974,-0.031820677,-0.05315857,-0.006059265,77.65971856,12.83979198,7.42
152145526053,-0.047027588,-0.001387024,9.990809,0.001687622,-0.05107727,0.013391113,77.65971856,12.83979198,7.42
152145526075,-0.05014038,-0.09308777,9.973211,0.026564026,-0.04798889,0.034161378,77.65971856,12.83979198,7.42
152145526097,-0.089401245,-0.25230256,9.537466,-0.02073822,-0.027960205,0.058821104,77.65973975,12.8398601,7.67
152145526119,-0.13429412,-0.11259766,9.709013,-0.0146102905,0.025146484,0.07671814,77.65973975,12.8398601,7.67
152145526141,0.09734497,-0.37332764,10.097232,0.015855407,0.071006775,0.047636412,77.65973975,12.8398601,7.67
152145526163,0.11123352,-0.2884491,9.444214,-0.021966552,0.06594696,0.019195557,77.65973975,12.8398601,7.67
152145526185,0.24459076,-0.89706266,10.071373,0.002697754,0.05140991,-0.0020614625,77.65973975,12.8398601,7.67
152145526207,0.23238221,-0.67607725,9.912039,0.025552368,-0.0084640505,-0.036364745,77.65977648,12.83991833,6.83
152145526230,-0.043911744,-0.96817017,9.676692,-0.0077941893,-0.045539856,-0.015325928,77.65977648,12.83991833,6.83
152145526251,-0.048939515,-0.63681185,9.363054,-0.021057129,-0.034086607,0.026385497,77.65977648,12.83991833,6.83
152145526273,0.072207645,-0.75316924,10.158406,-0.020365905,0.0045333863,0.024894714,77.65977648,12.83991833,6.83
152145526295,0.04180298,-0.7860901,9.440625,9.399414E-4,0.019929504,0.022869874,77.65980318,12.83998049,6.96
152145526317,0.023843383,-0.60544586,9.914434,-0.0016723633,0.036175538,0.01642456,77.65980318,12.83998049,6.96
152145526340,0.21226959,-0.6085617,10.010203,0.021449279,0.03809204,-0.009411621,77.65980318,12.83998049,6.96
152145526362,0.17623596,-0.4383316,9.7391815,0.0079193115,0.022483826,-0.022731017,77.65980318,12.83998049,6.96
152145526384,0.05293579,-0.21471405,9.836985,0.009300232,0.0011245727,-0.036151122,77.65980318,12.83998049,6.96
152145526406,0.06035919,-0.25876158,10.0583315,0.033700563,-0.019068908,-0.026936341,77.65982318,12.84002949,6.4
152145526428,0.07974701,-0.64638823,9.509816,-0.048649598,-0.044311523,-0.021665955,77.65982318,12.84002949,6.4
152145526450,0.025161743,-0.5884491,9.749598,0.008503723,-0.040161133,0.0033203126,77.65982318,12.84002949,6.4
152145526472,0.058444213,-0.6751175,10.24292,0.024804687,-0.03296814,0.01642456,77.65982318,12.84002949,6.4
152145526494,0.042759705,-0.9571579,9.508858,-0.057279967,-0.0044143675,0.03506775,77.65983654,12.84009105,6.32
152145526516,0.10584869,-0.7146225,9.76444,-0.016693115,0.034469604,0.0296875,77.65983654,12.84009105,6.32
152145526538,0.2697296,-0.96206206,10.099388,0.1088562,0.038728334,-0.0028564453,77.65983654,12.84009105,6.32
152145526560,0.22447968,-1.1577927,9.465762,-0.0878006,-0.019918824,-0.015965272,77.65983654,12.84009105,6.32
152145526582,0.10165711,-1.1636581,9.509936,0.0042434693,-0.012033081,0.0061416626,77.65983654,12.84009105,6.32
152145526604,0.058439635,-1.5109406,9.671063,-0.031922914,-0.006124878,0.011206055,77.65984741,12.8401442,5.18
152145526626,0.08657227,-1.2065125,9.930359,0.056871034,0.010981751,0.020956421,77.65984741,12.8401442,5.18
152145526648,0.123565674,-1.3496888,10.0188265,-0.032884218,0.021418761,0.0040130615,77.65984741,12.8401442,5.18
152145526670,0.2129898,-1.1300201,9.547404,-0.0023117065,0.013320923,-0.006323242,77.65984741,12.8401442,5.18
152145526692,0.2123886,-1.3842819,10.065393,0.03791046,0.008261109,-0.01990509,77.65986989,12.84018651,4.55
152145526714,0.1691742,-1.0535263,9.699797,-0.009341431,-0.015655518,-0.021453857,77.65986989,12.84018651,4.55
152145526736,0.04671173,-0.5002197,9.909529,0.024111938,-0.016560365,-0.015058899,77.65986989,12.84018651,4.55
152145526758,0.07987213,-0.36914062,12.126081,0.16813508,-6.3323975E-4,0.005238342,77.65986989,12.84018651,4.55
152145526780,0.024443055,-1.3338852,7.1996536,0.1128479,-0.0025512695,0.01418457,77.65986989,12.84018651,4.55
152145526802,0.12943116,-0.08566437,9.766835,-0.71683806,-0.15392914,-0.009306336,77.65989353,12.84021775,3.82
152145526824,-0.10292969,0.7620041,9.486834,0.235141,-0.05560608,0.048010252,77.65989353,12.84021775,3.82
152145526846,-0.13501282,-0.009408569,11.625929,0.2685379,-0.046179198,0.10526886,77.65989353,12.84021775,3.82
152145526868,-0.24526672,0.57286227,9.210422,-0.09483185,-0.00809021,0.1506485,77.65989353,12.84021775,3.82
152145526891,-0.18193817,0.3997589,10.220415,0.044192504,0.086509705,0.1550171,77.65989353,12.84021775,3.82
152145526912,0.06490326,0.09509735,9.554469,-0.0104599,0.1534607,0.11698303,77.65990797,12.84024932,3.82
152145526935,0.2953537,0.32553864,9.902944,-0.0589859,0.1927658,0.014930725,77.65990797,12.84024932,3.82
152145526956,0.18233795,0.32530212,9.682798,0.020811463,0.12842408,-0.10252075,77.65990797,12.84024932,3.82
152145526979,0.15851898,0.31452638,9.908812,0.007810974,0.038249206,-0.15285186,77.65990797,12.84024932,3.82
152145527000,0.029115295,0.26568604,9.604144,0.019212341,-0.04399719,-0.14390258,77.65992445,12.84029863,5.1
152145527023,-0.10340881,0.18560028,10.115309,0.033433534,-0.08133087,-0.10022888,77.65992445,12.84029863,5.1
152145527044,-0.246344,0.08456421,9.662207,-0.005239868,-0.08383484,-0.040518187,77.65992445,12.84029863,5.1
152145527067,-0.2629837,0.15459442,9.762167,-0.0053466796,-0.020713806,0.025427246,77.65992445,12.84029863,5.1
152145527089,0.08202515,0.11401367,9.518677,-0.005291748,0.04411163,-0.0029129027,77.65992445,12.84029863,5.1
152145527111,0.12620087,0.227977,10.048632,0.013243103,0.025630187,-0.05255432,77.65993777,12.84034291,5.1
152145527133,0.13673249,0.19816895,10.074611,-0.012324524,-0.005375671,-0.065179445,77.65993777,12.84034291,5.1
152145527155,-0.007879639,0.2292923,9.696442,8.346558E-4,-0.052409362,-0.06251831,77.65993777,12.84034291,5.1
152145527177,-0.110588074,0.16991577,9.642336,0.017613221,-0.07866974,-0.030827332,77.65993777,12.84034291,5.1
152145527199,-0.16242523,0.28292543,10.209406,0.0020050048,-0.040481567,0.02899475,77.65994193,12.84039825,5.85
152145527221,0.062748715,-0.09464417,9.419556,0.0119689945,-0.0013839721,0.019407654,77.65994193,12.84039825,5.85
152145527243,0.0042099,0.28975067,9.9268875,-0.0062545775,-0.0027130127,0.015202331,77.65994193,12.84039825,5.85
152145527265,0.040719606,-0.012757873,9.899594,0.026402283,-0.0019119263,0.0014038086,77.65994193,12.84039825,5.85
152145527287,-0.040914916,0.17566529,9.514366,-0.011257934,-0.02753601,0.016052246,77.65994193,12.84039825,5.85
152145527309,-0.033018492,0.2236679,9.998949,0.0011032105,0.019340515,0.026545715,77.6599541,12.84046843,6.74
152145527331,0.08010864,0.13269043,9.806219,-0.015359497,0.023498535,0.009446716,77.6599541,12.84046843,6.74
152145527353,0.06443024,0.07750092,9.985425,-1.2664795E-4,0.013217163,-0.0036087036,77.6599541,12.84046843,6.74
152145527375,0.048146058,-0.18083191,9.654307,-0.02425537,0.0012298584,-0.0013687133,77.6599541,12.84046843,6.74
152145527397,0.11446533,-0.19460297,9.80047,4.0740968E-4,-0.008522034,-0.0060073854,77.65996872,12.84054234,7.09
152145527419,0.07220612,-0.19735566,9.7217045,-3.3874513E-4,-0.030892944,-0.010855103,77.65996872,12.84054234,7.09
152145527441,-0.031105042,-0.078482054,9.784909,0.02433014,-0.044207763,0.0042266846,77.65996872,12.84054234,7.09
152145527463,-0.013745117,-0.22859803,9.9455595,-0.0023086548,-0.05315552,0.020953368,77.65996872,12.84054234,7.09
152145527485,-0.082099915,-0.2023819,9.366402,-0.007844543,-0.029560853,0.042312622,77.65996872,12.84054234,7.09
152145527507,-0.053489685,-0.09823151,9.776889,0.007015991,0.029356385,0.067985535,77.65998307,12.84062378,7.56
152145527530,-0.015657043,-0.24607544,9.962199,-0.012324524,0.069567874,0.043908693,77.65998307,12.84062378,7.56
152145527551,0.035102844,-0.19256592,9.666876,-0.016159058,0.09428406,0.0198349,77.65998307,12.84062378,7.56
152145527573,0.18162537,-0.20345612,9.76803,-0.018876648,0.08219147,-0.020013427,77.65998307,12.84062378,7.56
152145527595,0.17001343,-0.17711945,9.831836,0.024964904,0.033885192,-0.055648804,77.66000215,12.84068953,7.56
152145527618,0.072566226,-0.1966339,9.977766,0.002165222,-0.022795105,-0.053729247,77.66000215,12.84068953,7.56
152145527640,-0.09933472,-0.20692596,9.712486,-0.0044906614,-0.030413818,-0.026992798,77.66000215,12.84068953,7.56
152145527662,-0.05707855,-0.3116745,9.7352295,0.0072250366,-0.035528563,-0.015592957,77.66000215,12.84068953,7.56
152145527684,0.03928833,-0.38841096,9.909167,0.0014175415,-0.036698915,-0.011705017,77.66000215,12.84068953,7.56
152145527706,0.009358215,-0.36075896,9.791853,-0.0047073364,-0.057948302,-0.013461304,77.66001021,12.84077499,7.61
152145527728,-0.1813385,-0.5386475,9.772461,-0.013972473,-0.004951477,0.04561157,77.66001021,12.84077499,7.61
152145527750,-0.049656678,-0.42659608,9.770543,-7.1258546E-4,0.069891356,0.03432312,77.66001021,12.84077499,7.61
152145527772,0.20173645,-0.663266,9.900311,0.0017944336,0.07542572,-0.011012268,77.66001021,12.84077499,7.61
152145527794,0.13541718,-0.5876099,9.843208,-0.005078125,0.044215392,-0.04249115,77.6600158,12.84085556,7.67
152145527816,0.0651413,-0.67188567,9.868704,-0.0033737184,-0.00990448,-0.055325318,77.6600158,12.84085556,7.67
152145527838,0.14523315,-0.5631882,10.016309,0.023579407,-0.03701935,-0.0417984,77.6600158,12.84085556,7.67
152145527860,0.042999268,-0.6011383,9.76073,-0.017330933,-0.058110047,-0.036257934,77.6600158,12.84085556,7.67
152145527882,-0.09036102,-0.41271514,9.9177885,0.02027588,-0.06450043,-3.036499E-4,77.6600158,12.84085556,7.67
152145527904,-0.09682159,-0.36566925,10.001944,0.015055847,-0.042660523,0.023243714,77.66003795,12.84092144,7.67
152145527926,-0.05157318,-0.3862564,9.713086,-4.470825E-4,-0.0023391724,0.03969879,77.66003795,12.84092144,7.67
152145527948,0.0859787,-0.44156343,9.857813,-0.009500122,0.019769287,0.022390747,77.66003795,12.84092144,7.67
152145527970,0.078315735,-0.3536957,9.655978,-0.005027771,0.0042663575,0.0020950318,77.66003795,12.84092144,7.67
152145527992,0.027197266,-0.4040924,9.844045,-0.006840515,0.0111373905,0.014987183,77.66007338,12.84098853,7.35
152145528014,0.08082886,-0.6451904,9.749834,-0.011524963,0.030957032,0.018878173,77.66007338,12.84098853,7.35
152145528036,0.107881166,-0.6418411,10.008528,0.0145751955,0.031381227,-0.003503418,77.66007338,12.84098853,7.35
152145528058,0.13864593,-0.6693741,9.9144335,0.0017364502,0.003363037,-0.019425964,77.66007338,12.84098853,7.35
152145528080,0.14032288,-0.5445129,9.929163,0.010423278,-0.025778199,-0.017832946,77.66007338,12.84098853,7.35
152145528102,0.07543945,-0.6171799,9.629166,-0.014294433,-0.057048034,-0.009629821,77.66009889,12.84105013,7.35
152145528124,-0.034576416,-0.512912,9.486832,-0.010830688,-0.061572265,0.017008971,77.66009889,12.84105013,7.35
152145528146,-0.08652802,-0.22392578,10.537888,0.060702514,-0.055395506,0.03794708,77.66009889,12.84105013,7.35
152145528168,-0.11107025,-0.43868867,10.101067,0.059375,-0.022103881,0.05743866,77.66009889,12.84105013,7.35
152145528190,-0.22167969,-0.12133942,9.420033,-0.08535004,0.0012832641,0.07554779,77.66013344,12.84112655,7.71
152145528212,-0.030863952,-0.4325882,9.640657,0.01990204,0.08155365,0.06777191,77.66013344,12.84112655,7.71
152145528235,0.08310242,-0.47938842,9.879125,-0.0015625,0.13279419,0.037413023,77.66013344,12.84112655,7.71
152145528256,0.14774323,-0.33202666,9.560692,-0.08279266,0.12693635,-0.01090393,77.66013344,12.84112655,7.71
152145528278,0.18234101,-0.30641022,9.832074,0.034765624,0.10973053,-0.053892516,77.66013344,12.84112655,7.71
152145528300,0.3230011,-0.3249634,9.910609,-0.0013015748,0.007621765,-0.10976257,77.66015461,12.84119873,7.96
152145528323,0.03353882,-0.291922,9.713087,0.01878662,-0.093104556,-0.090588376,77.66015461,12.84119873,7.96
152145528345,-0.16003112,-0.34806824,9.857931,0.009835815,-0.11259766,-0.028274536,77.66015461,12.84119873,7.96
152145528367,-0.13549194,-0.45341492,9.646645,0.012980652,-0.07350159,0.019940186,77.66015461,12.84119873,7.96
152145528389,-0.049180605,-0.60843813,9.750913,0.0023788451,-0.031477354,0.031817626,77.66015461,12.84119873,7.96
152145528411,0.043955993,-0.5752777,9.921141,-0.0030532838,0.005545044,0.028146362,77.66017101,12.8412886,7.97
152145528433,-0.021525573,-0.590123,9.514961,-0.027342224,0.033244323,0.025106812,77.66017101,12.8412886,7.97
152145528455,0.14678498,-0.5737213,9.61205,0.010313416,0.046562195,0.005770874,77.66017101,12.8412886,7.97
152145528477,0.16749573,-0.5635513,10.03127,-0.004385376,0.016041566,-0.023904419,77.66017101,12.8412886,7.97
152145528499,0.082026675,-0.59754485,9.668913,-0.01322937,-0.026312256,-0.023262024,77.6601931,12.8413664,8.5
152145528521,0.034739684,-0.8957459,9.739655,-0.006941223,-0.039787292,-0.0030197143,77.6601931,12.8413664,8.5
152145528543,0.015104676,-0.9530884,9.555303,0.0024307251,-0.027430724,0.01083374,77.6601931,12.8413664,8.5
152145528565,0.010197449,-0.7707672,9.941492,0.009889221,-4.8828126E-5,0.020098876,77.6601931,12.8413664,8.5
152145528587,-0.0042877197,-0.8220032,10.181272,-0.021218872,0.003201294,0.009715271,77.6601931,12.8413664,8.5
152145528609,0.11159058,-0.805603,9.680043,0.029013062,0.005703735,0.0098724365,77.66020584,12.84144304,7.41
152145528631,0.16594085,-1.0526855,9.7688675,-0.016635131,0.006878662,0.0012420655,77.66020584,12.84144304,7.41
152145528653,0.16474304,-0.8338547,9.682675,0.025712585,3.7841796E-4,0.0047058105,77.66020584,12.84144304,7.41
152145528675,0.088731386,-0.81171113,9.995958,0.0072280886,-3.1433106E-4,0.0017227173,77.66020584,12.84144304,7.41
152145528697,0.10668488,-0.724202,9.9197035,0.016551208,0.0098052975,0.007905578,77.66021732,12.84152687,7.16
152145528719,0.12667847,-0.94111633,9.171633,-0.039538573,0.008583069,-0.0011581421,77.66021732,12.84152687,7.16
152145528741,0.13828735,-0.412471,9.765877,-0.023188781,0.01721344,0.0037445067,77.66021732,12.84152687,7.16
152145528763,0.15301362,-0.9226807,10.545786,0.01404419,0.027598571,-0.01676178,77.66021732,12.84152687,7.16
152145528785,0.14762573,-0.62903136,9.583438,0.055006407,-0.027323913,-0.025231933,77.66021732,12.84152687,7.16
152145528807,0.07472076,-0.7629837,10.006973,-0.023028564,-0.03653412,-0.009519959,77.66024343,12.84159584,7.63
152145528829,0.10536804,-0.76621705,9.704344,-7.1716306E-5,-0.0316391,0.010353088,77.66024343,12.84159584,7.63
152145528851,0.12212829,-0.957518,9.601514,-0.016423035,-0.00910492,0.015625,77.66024343,12.84159584,7.63
152145528873,0.11123352,-0.7004959,9.763005,0.008880615,-0.0032989501,0.022389222,77.66024343,12.84159584,7.63
152145528895,0.121406555,-0.86725616,10.003502,-0.015733337,0.005015564,0.011897278,77.66026638,12.84166069,7.39
152145528917,0.13326111,-0.7286285,9.685312,-0.0027877807,-0.015551758,0.009338379,77.66026638,12.84166069,7.39
152145528940,0.1295517,-0.916098,9.814957,0.012713623,-0.0145401005,0.010406494,77.66026638,12.84166069,7.39
152145528961,0.14056244,-0.765741,9.87972,-0.012165832,-0.016670227,0.020262146,77.66026638,12.84166069,7.39
152145528983,0.11937408,-0.90053403,9.407225,0.0106369015,-0.012942505,0.022444153,77.66026638,12.84166069,7.39
152145529005,0.09363556,-0.76154935,9.646764,-0.038264465,-0.022956848,0.025587464,77.66027796,12.84172461,6.78
152145529028,0.11590271,-0.5368515,9.797122,0.05473938,0.001600647,0.032884218,77.66027796,12.84172461,6.78
152145529050,0.035096742,-0.49614868,10.066946,0.027734375,-0.009851074,0.035920717,77.66027796,12.84172461,6.78
152145529072,-0.01638031,-0.42408752,9.92485,-0.06851502,-0.002496338,0.04433594,77.66027796,12.84172461,6.78
152145529094,0.19155884,-0.5300293,9.426618,0.05026703,0.01928711,0.04060669,77.66029181,12.84179094,7.08
152145529116,0.0364151,-0.3541748,9.975128,-0.027770996,0.018119812,0.032563783,77.66029181,12.84179094,7.08
152145529138,0.050424196,-0.34674987,9.542378,-0.014454651,0.012524414,0.022816468,77.66029181,12.84179094,7.08
152145529160,0.06347046,-0.32951355,9.692373,-0.0024154664,0.01689148,0.021005249,77.66029181,12.84179094,7.08
152145529182,0.088848874,-0.4103195,9.819745,0.0072784424,0.01838379,0.014451599,77.66029181,12.84179094,7.08
152145529204,0.12045288,-0.42922974,9.79437,0.0024337769,0.0073013306,0.0033218383,77.66031176,12.84185334,7.09
152145529226,0.0724472,-0.36183625,9.684712,-0.0010848999,-0.0061767576,0.0088623045,77.66031176,12.84185334,7.09
152145529248,0.13792877,-0.45879975,9.737745,-0.007583618,-0.008518982,0.0071044923,77.66031176,12.84185334,7.09
152145529270,0.086573794,-0.31574708,9.723978,2.4871825E-4,-0.01235199,0.0109375,77.66031176,12.84185334,7.09
152145529292,0.12931061,-0.4469513,9.800589,-0.008596802,-0.040370177,0.007157898,77.66032559,12.84192775,7.69
152145529314,0.09004822,-0.45329744,9.7982,0.03791199,-0.058265686,0.021644592,77.66032559,12.84192775,7.69
152145529308,0.07172851,-0.38888854,9.912163,0.009941101,-0.07169189,0.041033935,77.66032559,12.84192775,7.69
152145529330,-0.020689392,-0.39774933,9.703029,0.019210815,-0.054914854,0.07000885,77.66032559,12.84192775,7.69
152145529352,0.042158507,-0.4804718,9.696683,-0.017382812,-0.017042542,0.087956235,77.66032559,12.84192775,7.69
152145529374,0.05592804,-0.31048125,9.845961,0.015484619,0.016784668,0.0852417,77.66032714,12.8420112,8.42
152145529396,0.15780334,-0.33729553,10.04516,0.0068527223,0.023390198,0.06856994,77.66032714,12.8420112,8.42
152145529418,0.11542358,-0.43605804,9.681482,-0.0010848999,0.018492127,0.058503725,77.66032714,12.8420112,8.42
152145529440,0.091481015,-0.4753235,9.934547,0.0126602175,0.018222045,0.059300233,77.66032714,12.8420112,8.42
152145529462,0.07232666,-0.33729553,9.847641,-0.018821716,0.031326294,0.058291625,77.66033485,12.84208536,8.78
152145529484,0.19383392,-0.4072052,9.61971,-0.020207215,0.04160614,0.040927123,77.66033485,12.84208536,8.78
152145529506,0.1769577,-0.39355773,9.781077,0.011914062,0.016838074,0.013496399,77.66033485,12.84208536,8.78
152145529528,0.13146667,-0.44132385,9.885588,-0.008757019,-0.012995911,0.019300843,77.66033485,12.84208536,8.78
152145529550,0.14260101,-0.33526307,9.561053,-8.163452E-4,-0.031690978,0.021327209,77.66033485,12.84208536,8.78
152145529572,0.098544315,-0.37799683,10.031032,0.028425599,-0.054486085,0.031713866,77.66033235,12.84217481,9.4
152145529594,0.016064454,-0.43797302,10.0750885,0.030345153,-0.060929872,0.055250548,77.66033235,12.84217481,9.4
152145529617,0.016421508,-0.4482666,9.531484,-0.0203125,-0.042132568,0.07837067,77.66033235,12.84217481,9.4
152145529639,-0.022247314,-0.21171875,9.956813,0.027894592,0.004055786,0.088754274,77.66033235,12.84217481,9.4
152145529661,0.031987,-0.46921235,9.682196,-0.024841309,0.021205138,0.08013,77.66033235,12.84217481,9.4
152145529683,0.104766846,-0.5041717,9.942329,0.026295472,0.047303773,0.074482724,77.66033596,12.84225438,9.2
152145529705,0.1467865,-0.45341492,9.7059,-0.018504333,0.06174011,0.057115175,77.66033596,12.84225438,9.2
152145529727,0.07975159,-0.5218872,9.592776,-0.007902527,0.063287355,0.04524231,77.66033596,12.84225438,9.2
152145529749,0.08836822,-0.5488251,10.0000305,0.0364151,0.055244446,0.017008971,77.66033596,12.84225438,9.2
152145529771,0.0487442,-0.30473632,9.945204,-0.052592468,0.020140076,0.0026779175,77.66033852,12.84233593,8.98
152145529793,0.07376404,-0.6031723,10.2736845,0.04776611,0.025466919,0.0044387816,77.66033852,12.84233593,8.98
152145529815,0.10859986,-0.556485,10.034746,-0.018984985,0.0022979737,0.0028930665,77.66033852,12.84233593,8.98
152145529837,0.09782867,-0.5665436,9.892886,0.028588867,0.037399292,0.010670471,77.66033852,12.84233593,8.98
152145529859,0.18138123,-0.53457797,9.964476,0.0011016845,0.018544007,-0.01266632,77.66033852,12.84233593,8.98
152145529881,0.20903626,-0.9435104,9.633357,-0.021005249,0.0062911985,-0.019534301,77.66035088,12.84239896,8.34
152145529903,0.24506989,-0.7845337,9.497844,-0.050088502,-0.051556397,-0.035728455,77.66035088,12.84239896,8.34
152145529925,0.0032531738,-0.71462405,10.411589,0.089149475,-0.06961517,-0.0016372681,77.66035088,12.84239896,8.34
152145529947,-0.008360291,-0.95632017,10.003618,0.0040298463,-0.05294342,0.030969238,77.66035088,12.84239896,8.34
152145529969,0.010076905,-1.0142578,9.33037,-0.025689697,-0.034301758,0.04790344,77.66034316,12.84248077,8.33
152145529991,0.0621521,-1.3978103,9.8220215,0.012556458,0.020193482,0.053440858,77.66034316,12.84248077,8.33
152145530013,0.25069886,-1.4701141,9.637787,-0.03426819,0.05220642,0.037571717,77.66034316,12.84248077,8.33
152145530035,0.25608674,-1.5747421,9.726132,0.009036255,0.053379823,0.014138794,77.66034316,12.84248077,8.33
152145530057,0.20616761,-1.57079,9.932271,-0.0034805299,0.036601257,-0.005899048,77.66034316,12.84248077,8.33
152145530079,0.28888398,-1.7966858,9.524179,-0.024253845,0.006715393,-0.021398926,77.66034075,12.84256578,8.03
152145530101,0.22783203,-1.7856735,9.528493,-1.9836425E-5,-0.035470583,-0.021609496,77.66034075,12.84256578,8.03
152145530123,0.061312865,-1.6878678,10.719847,0.08515473,-0.032543946,0.0044921874,77.66034075,12.84256578,8.03
152145530145,0.12895203,-2.0045013,9.811007,0.03503113,-0.019812012,0.026971435,77.66034075,12.84256578,8.03
152145530167,0.20101777,-1.9980377,9.112139,-0.10846863,-0.03589783,0.027450562,77.66033158,12.84262393,6.88
152145530189,0.22040863,-1.8302063,9.678368,0.09100952,-0.0032974244,0.038638305,77.66033158,12.84262393,6.88
152145530212,0.044673156,-1.6559067,9.965314,-0.020845031,0.004850769,0.04838104,77.66033158,12.84262393,6.88
152145530233,-0.18516846,-0.5850967,10.10202,0.017613221,0.070689395,0.079595946,77.66033158,12.84262393,6.88
152145530255,0.020848084,-0.51350707,10.605524,0.36308137,0.15665588,0.044599913,77.66033158,12.84262393,6.88
152145530278,0.6076752,-2.4893265,8.391487,-0.7171051,0.032229614,-0.0826004,77.6603315,12.84268499,5.53
152145530300,0.28960267,0.25419313,8.496709,-0.021694947,-0.056510925,-0.14491577,77.6603315,12.84268499,5.53
152145530322,-0.3615036,-0.59060365,12.017026,0.4297638,-0.108177185,-0.0802536,77.6603315,12.84268499,5.53
152145530344,-0.266333,-0.3295105,8.9702835,-0.10377808,-0.1287384,0.07416229,77.6603315,12.84268499,5.53
152145530366,-0.3229599,-0.048432924,10.131948,0.068855286,0.058599852,0.13046113,77.66033027,12.84274063,5.22
152145530388,0.06682129,-0.19974823,9.800471,-0.02190857,0.14200592,0.090675354,77.66033027,12.84274063,5.22
152145530410,0.35388488,0.089112855,10.052704,0.018679809,0.1640625,-0.031571962,77.66033027,12.84274063,5.22
152145530432,0.39147797,-0.30162352,9.517598,-0.04497833,0.039689638,-0.15354462,77.66033027,12.84274063,5.22
152145530454,0.0076812743,0.13627777,10.01607,0.03625641,-0.042395018,-0.12829895,77.66033027,12.84274063,5.22
152145530476,-0.030622864,-0.13462372,9.926886,0.021125793,-0.042289734,-0.07961426,77.66032622,12.84278771,5.22
152145530498,0.040727235,0.08108978,9.086162,-0.019995118,-0.053793333,-0.04792633,77.66032622,12.84278771,5.22
152145530520,0.07412567,-0.033473205,9.912161,0.0032318116,-0.056243896,-0.046060182,77.66032622,12.84278771,5.22
152145530542,0.053894043,-0.13091584,9.136078,-0.041833498,-0.08676453,-0.024278259,77.66032622,12.84278771,5.22
152145530564,-0.051452637,0.03703766,10.195874,0.033006288,-0.10631256,0.0035324097,77.66034029,12.84283796,6.16
152145530586,-0.1442276,-0.27768248,10.120097,0.022460938,-0.092623904,0.054138184,77.66034029,12.84283796,6.16
152145530608,-0.11741333,-0.39499512,9.425539,-0.02462616,-0.020344544,0.111343384,77.66034029,12.84283796,6.16
152145530630,0.039405823,-0.5014175,9.908331,0.009466553,0.078302,0.1093689,77.66034029,12.84283796,6.16
152145530652,0.12332459,-0.6423203,9.934909,-0.023298645,0.10754852,0.061801147,77.66034029,12.84283796,6.16
152145530674,0.2893631,-0.83624876,9.480725,-0.016798401,0.09620514,-9.94873E-4,77.66033212,12.84289767,6.89
152145530696,0.16964874,-0.74957883,9.688663,-0.005667114,0.041604616,-0.040626526,77.66033212,12.84289767,6.89
152145530718,0.19239655,-0.85731965,10.086339,-0.0075317384,-0.0051651,-0.05543213,77.66033212,12.84289767,6.89
152145530740,0.045391846,-0.85205233,9.773778,0.0723175,-0.00473938,-0.029281616,77.66033212,12.84289767,6.89
152145530762,0.10404968,-0.7943512,9.99452,-0.032563783,-0.01683197,-0.028909301,77.66032708,12.84295446,7.04
152145530784,0.10333405,-0.68697053,9.861044,0.038600158,-0.022102356,-0.02203827,77.66032708,12.84295446,7.04
152145530806,0.16247253,-1.1279846,10.175283,0.04371338,-0.03627167,-0.01905365,77.66032708,12.84295446,7.04
152145530828,0.084898375,-1.2765442,9.516996,0.024110412,-0.046446227,4.9591064E-4,77.66032708,12.84295446,7.04
152145530850,0.12308808,-1.0111465,9.988896,0.007330322,-0.024604797,0.022070313,77.66032708,12.84295446,7.04
152145530872,0.110276796,-0.89526826,9.437033,-0.08652191,-0.016937256,0.028518677,77.66032554,12.84299805,5.09
152145530894,-0.01206665,-0.46083832,10.028163,0.046592712,0.005703735,0.04486542,77.66032554,12.84299805,5.09
152145530917,0.15839843,-1.131334,11.314206,0.02980957,0.01960907,0.023777772,77.66032554,12.84299805,5.09
152145530938,0.06957855,-1.0124633,8.305532,0.1482666,0.018380737,0.040231325,77.66032554,12.84299805,5.09
152145530960,0.21777344,-0.48717347,8.868291,-0.34186095,-0.010011291,0.019776916,77.66032554,12.84299805,5.09
152145530983,0.05592499,-0.26618958,7.6549087,-0.13658905,-0.006015015,0.0020935058,77.66032687,12.84304977,5.62
152145531005,0.019773865,0.24820404,11.509932,0.033592224,0.015026855,0.035812378,77.66032687,12.84304977,5.62
152145531027,0.0039749146,-0.24883118,10.301938,0.2824402,0.09987793,0.033947755,77.66032687,12.84304977,5.62
152145531049,0.17527619,-0.2562515,9.412613,-0.12428131,-0.0015914917,-0.05367737,77.66032687,12.84304977,5.62
152145531071,-0.16697235,0.40969697,9.443136,0.030130005,-0.018215943,-0.02326355,77.6603086,12.84310514,6.16
152145531093,0.04108429,-0.10373993,10.34671,0.05735016,-0.0013824463,-0.013571167,77.6603086,12.84310514,6.16
152145531115,-0.14231415,0.33727112,9.427338,-0.022335816,0.002935791,0.0070510865,77.6603086,12.84310514,6.16
152145531137,0.032102965,0.1456131,10.217546,0.016389465,0.011831665,-0.012554931,77.6603086,12.84310514,6.16
152145531159,-0.11932983,0.1950531,9.77294,0.013725281,0.010287476,-0.010105896,77.6603086,12.84310514,6.16
152145531181,-0.044511415,0.31392974,9.8672695,-0.014880371,-0.010435486,-0.016020203,77.66029807,12.84317611,7.43
152145531203,-0.13393554,0.3121338,10.017389,0.0147918705,-0.01257019,-0.0146865845,77.66029807,12.84317611,7.43
152145531225,-0.10544281,0.12083588,9.874453,0.0074935914,5.3863524E-4,2.3040772E-4,77.66029807,12.84317611,7.43
152145531247,-0.072402954,0.27167207,9.85829,0.04344635,0.015509034,0.0045425417,77.66029807,12.84317611,7.43
152145531269,0.059159853,-0.056214906,9.746724,-0.05472412,0.019822692,-0.01144104,77.66028721,12.84324676,7.49
152145531291,-0.15213165,-0.6305817,9.834709,-0.015464783,-0.01581726,-0.01580658,77.66028721,12.84324676,7.49
152145531313,-0.0023727417,-0.79937744,9.818069,-0.005026245,-0.005801392,-0.012394714,77.66028721,12.84324676,7.49
152145531335,0.018339539,-0.44934386,9.863678,4.6081544E-4,0.016516114,0.005239868,77.66028721,12.84324676,7.49
152145531357,0.14642945,-0.4778366,9.767316,0.004508972,0.043417357,-0.018737793,77.66028721,12.84324676,7.49
152145531379,0.114587404,-0.38386384,9.671305,-0.0116851805,0.016200256,-0.0443573,77.66028759,12.84330766,7.44
152145531401,0.07220612,-0.4000244,9.464327,-0.0038528442,-0.0039382936,-0.044569395,77.66028759,12.84330766,7.44
152145531423,-0.037805177,-0.20704956,9.703984,0.0026992797,-0.018479919,-0.03412781,77.66028759,12.84330766,7.44
152145531445,-0.049060058,-0.07536926,9.899472,0.0033905029,-0.02247467,-0.026885986,77.66028759,12.84330766,7.44
152145531467,0.08321991,-0.24224396,9.7753315,-0.014031982,-0.03504486,-0.030451965,77.66027633,12.84336971,7.23
152145531489,0.10752563,-0.26690674,9.71596,0.006536865,-0.07557984,-0.031518556,77.66027633,12.84336971,7.23
152145531511,0.0799881,-0.6508179,9.986502,0.010743713,-0.09549866,0.0044387816,77.66027633,12.84336971,7.23
152145531533,-0.07766876,-0.7862091,9.755699,0.0035003661,-0.07542267,0.04998169,77.66027633,12.84336971,7.23
152145531555,-0.08521118,-0.8319443,9.955853,0.008448792,-0.0054824827,0.08891602,77.66027633,12.84336971,7.23
152145531577,0.030548096,-0.86833036,9.761686,0.016229248,0.0627533,0.08497772,77.66027455,12.84343801,7.37
152145531599,0.15480652,-0.5882095,9.794965,0.0015823364,0.087573245,0.042523194,77.66027455,12.84343801,7.37
152145531622,0.20293275,-0.54822385,9.74397,-0.019248962,0.07862244,-0.0024291992,77.66027455,12.84343801,7.37
152145531643,0.2206482,-0.5234451,9.744209,-0.019091796,0.04123535,-0.032795716,77.66027455,12.84343801,7.37
152145531665,0.22531739,-0.50931853,9.998474,0.032263182,-0.011340332,-0.05053406,77.66026517,12.84350261,6.93
152145531688,0.15229492,-0.481427,9.876486,-0.0032684326,-0.06258698,-0.038388062,77.66026517,12.84350261,6.93
152145531710,0.15397187,-0.4473114,9.991531,0.036042787,-0.088839725,-0.013462829,77.66026517,12.84350261,6.93
152145531732,-0.0071624755,-0.50381166,10.000148,-0.036613464,-0.12799072,0.025585938,77.66026517,12.84350261,6.93
152145531754,-0.2652603,-0.48573607,9.751149,0.04259491,-0.086445615,0.09467163,77.66026517,12.84350261,6.93
152145531776,-0.23161773,-0.5765961,9.999431,0.010105896,0.043150328,0.1627411,77.66025881,12.84356027,7.1
152145531798,0.071492,-0.7729233,9.950589,-0.015834045,0.16943817,0.13818665,77.66025881,12.84356027,7.1
152145531820,0.35089722,-0.8829361,9.426374,-0.032563783,0.17838745,0.009069825,77.66025881,12.84356027,7.1
152145531842,0.3119873,-0.4998657,10.011881,-0.013018799,0.08602905,-0.06970672,77.66025881,12.84356027,7.1
152145531864,0.27787018,-0.6767975,10.309239,0.05660553,-0.001171875,-0.09543304,77.66025531,12.84360981,6.27
152145531886,-0.013265992,-0.91298676,9.940056,0.016441345,-0.04772339,-0.051278688,77.66025531,12.84360981,6.27
152145531908,-0.0014144897,-1.0349686,9.731522,0.0016326904,-0.07100067,-0.04084015,77.66025531,12.84360981,6.27
152145531930,-0.08520965,-0.9743988,9.858892,0.0023757934,-0.06860046,0.008540344,77.66025531,12.84360981,6.27
152145531952,-0.12639466,-1.0101913,9.7811985,0.002960205,-0.016511535,0.046142578,77.66025531,12.84360981,6.27
152145531974,-0.010272217,-0.96313936,9.821065,-0.016479492,0.0431015,0.057489015,77.66024936,12.84366489,6.46
152145532008,0.059040833,-0.8771912,9.849551,-0.012379455,0.089437865,0.024946595,77.66024936,12.84366489,6.46
152145532030,0.14116211,-0.8150589,9.872658,1.3885499E-4,0.09742431,-0.02842865,77.66024936,12.84366489,6.46
152145532052,0.1174591,-0.87192535,9.890373,-0.0049179075,0.07159424,-0.07945709,77.66024936,12.84366489,6.46
152145532074,0.24602814,-0.80464476,9.485754,0.0144699095,0.033615112,-0.118341066,77.66024936,12.84366489,6.46
152145532096,0.1489441,-0.75269014,9.829442,0.003604126,-0.03835144,-0.13436738,77.66025109,12.84370318,5.23
152145532118,-0.02798767,-0.77340394,9.88846,0.022834778,-0.059547424,-0.10006714,77.66025109,12.84370318,5.23
152145532140,-0.119212344,-0.8024872,9.940653,-0.014775085,-0.06434174,-0.057724,77.66025109,12.84370318,5.23
152145532162,-0.05767517,-0.66315,9.674777,0.02262268,-0.019546509,-0.0024307251,77.66025109,12.84370318,5.23
152145532184,0.0060073854,-0.73425597,9.901148,-0.01317749,-0.0019104003,-0.012557983,77.66024295,12.84374733,4.8
152145532206,0.05999756,-0.7869278,9.760969,0.022886658,0.017585754,-0.018310547,77.66024295,12.84374733,4.8
152145532228,0.15014037,-0.68218386,9.817232,-0.0072647096,7.5073243E-4,-0.049362183,77.66024295,12.84374733,4.8
152145532250,0.023603821,-0.6544067,9.867151,0.011434937,-0.018585205,-0.053622436,77.66024295,12.84374733,4.8
152145532273,0.2882843,-0.69822085,9.89863,0.010743713,-0.049319457,-0.06869812,77.66024295,12.84374733,4.8
152145532295,0.09974213,-0.62866974,9.940054,0.043554686,-0.109133914,-0.056233216,77.66021963,12.84378377,4.51
152145532317,0.12523957,-0.6557266,9.707219,-0.0018325805,-0.17182617,-0.0042449953,77.66021963,12.84378377,4.51
152145532339,-0.2698059,0.011302185,9.679205,0.034231566,-0.19409028,0.08934174,77.66021963,12.84378377,4.51
152145532361,-0.42758483,-0.025091553,10.184024,0.04184723,-0.10492706,0.24630737,77.66021963,12.84378377,4.51
152145532383,-0.23796387,0.13005066,9.94149,0.0228302,0.025042724,0.30553895,77.66022309,12.84381732,4.3
152145532405,0.15157624,0.15962219,9.885466,0.0109588625,0.11159668,0.24865265,77.66022309,12.84381732,4.3
152145532427,0.24985962,0.22977296,9.942807,-0.025215149,0.14440612,0.16103515,77.66022309,12.84381732,4.3
152145532449,0.39530793,0.2447342,9.816038,-0.004385376,0.10190125,0.042845152,77.66022309,12.84381732,4.3
152145532471,0.2222046,0.057624817,9.909651,5.691528E-4,0.05300293,0.022975158,77.66022309,12.84381732,4.3
152145532493,0.09686585,0.039074708,9.798917,0.024324035,0.028559875,0.014347839,77.66022525,12.84385991,5.43
152145532515,-0.06797485,0.14537506,9.467796,0.0048828125,0.015400696,0.021646118,77.66022525,12.84385991,5.43
152145532537,0.019537354,-0.29683533,9.944124,-0.06521454,0.029835511,0.030592347,77.66022525,12.84385991,5.43
152145532559,0.1671402,-0.76980746,9.767672,0.023098756,0.040859986,0.0037979125,77.66022525,12.84385991,5.43
152145532581,0.20090027,-0.6277115,9.82226,-0.050035097,0.028076172,-0.014955139,77.66021943,12.84390176,5.02
152145532603,0.16833344,-0.50536805,10.387532,0.159404,0.02791748,-0.034980774,77.66021943,12.84390176,5.02
152145532625,0.14977875,-0.7862091,11.106153,0.08882751,-0.0154418945,-0.046430968,77.66021943,12.84390176,5.02
152145532647,-0.09502868,-0.28210753,9.349043,0.2545883,-0.004524231,-0.0012069702,77.66021943,12.84390176,5.02
152145532669,-0.048817445,-0.7386856,9.268959,-0.3765381,-0.04260864,0.0087539675,77.66021943,12.84390176,5.02
152145532691,-0.07479401,0.08061371,6.2683043,-0.35219574,0.025358582,0.053019714,77.66020652,12.84394163,4.98
152145532713,0.1475052,0.25921935,11.891688,-0.22297974,0.10115509,-0.010264588,77.66020652,12.84394163,4.98
152145532735,0.014625549,-0.12504883,9.80131,0.53922117,0.104933165,-0.06661987,77.66020652,12.84394163,4.98
152145532757,0.18964386,0.07809906,10.867088,-0.13137206,0.0071395873,-0.11205292,77.66020652,12.84394163,4.98
152145532779,0.09698486,0.36635894,9.374064,0.10011902,-0.057685852,-0.13117829,77.66020256,12.843988,4.29
152145532801,-0.22586975,-0.005340576,10.67699,0.013935852,-0.11051941,-0.06422119,77.66020256,12.843988,4.29
152145532823,-0.16074829,-0.01563568,9.474142,-0.009178162,-0.08692627,0.0046524047,77.66020256,12.843988,4.29
152145532845,-0.4380005,-0.26140136,10.010083,0.025975037,-0.021516418,0.06239166,77.66020256,12.843988,4.29
152145532867,0.087171935,-0.37500152,9.346173,-0.05472412,0.0995575,0.07980957,77.66020256,12.843988,4.29
152145532889,0.51130676,-0.7493393,10.09053,-0.00854187,0.052737426,-0.06060028,77.66020233,12.84403876,4.46
152145532911,0.0720932,-0.66278994,9.7999935,0.039134216,-0.0422348,-0.08984222,77.66020233,12.84403876,4.46
152145532933,0.15361175,-0.8927536,9.670705,-0.02776947,-0.059443664,-0.024913024,77.66020233,12.84403876,4.46
152145532955,-0.08006592,-0.6766769,9.96256,0.028051758,-0.066474915,0.009660339,77.66020233,12.84403876,4.46
152145532978,-0.113824464,-0.83445436,10.093643,0.030610656,-0.041545104,0.052696228,77.66020424,12.84408706,4.49
152145533000,-0.14255218,-0.75532836,9.8128,-0.001989746,0.03201599,0.09594879,77.66020424,12.84408706,4.49
152145533022,0.11530457,-0.8422348,9.682917,-0.033203125,0.0900238,0.05227356,77.66020424,12.84408706,4.49
152145533044,0.41038972,-0.7698105,9.590738,0.0071228025,0.06397705,-0.02677765,77.66020424,12.84408706,4.49
152145533066,0.09219666,-0.8530075,10.274524,0.0020050048,0.010017395,-0.07183991,77.66020424,12.84408706,4.49
152145533088,-0.15979156,-0.876712,9.52059,0.01644287,0.014230346,-0.009516907,77.66019788,12.84415339,5.83
152145533110,0.013191223,-0.8617447,9.84584,-0.057174683,0.060676575,-0.006321716,77.66019788,12.84415339,5.83
152145533132,0.3191696,-0.5794678,9.973332,0.07604675,0.044908144,-0.08297119,77.66019788,12.84415339,5.83
152145533154,0.2775116,-0.7944687,10.363109,0.04206238,-0.064927675,-0.1485382,77.66019788,12.84415339,5.83
152145533176,-0.42578888,-0.8120651,9.457502,-0.06553497,-0.08713684,-0.03199768,77.66019788,12.84415339,5.83
152145533198,0.0957901,-0.7190506,9.9902115,0.028105164,-0.038934328,0.010243225,77.66018594,12.84421596,5.05
152145533220,-0.110350035,-1.0792618,9.932272,0.024162292,-0.03179779,0.01375885,77.66018594,12.84421596,5.05
152145533242,-0.2631027,-1.0069565,9.8841505,-0.011740113,0.02664032,0.06819763,77.66018594,12.84421596,5.05
152145533264,0.37818605,-1.3385559,9.751749,-0.0063583376,0.07628174,0.012745666,77.66018594,12.84421596,5.05
152145533286,0.38968047,-1.3348434,10.121534,0.003501892,-0.001701355,-0.10220337,77.66017355,12.84425484,4.33
152145533308,0.081906125,-1.4769424,9.723018,0.017456055,-0.05075989,-0.08638153,77.66017355,12.84425484,4.33
152145533330,-0.35264435,-1.5430237,10.010327,-0.0047073364,-0.03589783,0.009867859,77.66017355,12.84425484,4.33
152145533352,0.10620575,-1.4850814,9.66939,0.0125,0.014283752,0.0648941,77.66017355,12.84425484,4.33
152145533374,0.3010971,-1.6585449,10.079038,-0.006465149,0.018492127,0.0028381348,77.66016237,12.84429243,4.33
152145533396,0.19623108,-1.7330002,9.57518,-0.0079574585,-0.010438537,-0.038121033,77.66016237,12.84429243,4.33
152145533418,-0.09263611,-1.7138488,9.738106,0.027574157,-0.007936096,-0.0029708862,77.66016237,12.84429243,4.33
152145533440,0.11350708,-1.7217468,9.867392,-0.016212463,-0.0024475097,0.018876648,77.66016237,12.84429243,4.33
152145533462,0.08705139,-2.0005507,9.864756,0.018359374,-0.011286926,0.013656616,77.66016237,12.84429243,4.33
152145533484,0.19586945,-1.8014771,9.675974,-0.023988342,0.017156983,0.022123719,77.66016602,12.84430443,1.78
152145533506,0.09710999,-1.9175904,9.922098,0.0044021606,0.037983704,0.020741273,77.66016602,12.84430443,1.78
152145533529,0.07316742,-2.5829406,9.701711,-0.014559937,0.0043212892,0.0011901855,77.66016602,12.84430443,1.78
152145533550,0.05532684,-2.0915298,9.712725,0.0040283203,0.008372498,0.0013504028,77.66016602,12.84430443,1.78
152145533572,-0.18577118,-0.3765625,9.809568,0.017724609,-0.031794738,9.216309E-4,77.66016602,12.84430443,1.78
152145533594,0.08597259,-0.2748062,9.873731,-0.0039031983,-0.036912538,-0.0011032105,77.66016488,12.84431107,0.0
152145533617,0.058685303,-0.28007203,9.820341,-0.012910461,0.00938263,7.1716306E-5,77.66016488,12.84431107,0.0
152145533639,-0.024638366,-0.3296341,9.782034,5.126953E-4,0.02594757,0.0011886597,77.66016488,12.84431107,0.0
152145533661,-0.06569824,-0.33286437,9.835788,8.31604E-4,-2.0599365E-4,0.0033187866,77.66016488,12.84431107,0.0
152145533683,-0.0029693604,-0.34770814,9.783832,-4.974365E-4,-0.014862061,-0.004888916,77.66016236,12.84431392,0.0
152145533705,-0.033854675,-0.31071624,9.751749,-1.9836425E-5,0.01065979,-0.001210022,77.66016236,12.84431392,0.0
152145533727,-0.031459045,-0.35369414,9.789461,5.6762696E-4,0.011514282,-4.1046142E-4,77.66016236,12.84431392,0.0
152145533749,-0.0859314,-0.3113144,9.825968,-7.1716306E-5,0.0035751343,-3.8146973E-5,77.66016236,12.84431392,0.0
