timestamp,accx,accy,accz,gyrx,gyry,gyrz,longitude,latitude,speed
152145370722,0.06945648,-0.43102723,9.798317,-0.0011627197,0.007284546,0.0010299683,77.67236394,12.84443901,0.0
152145370744,0.048384093,-0.457724,9.815077,-0.0011657715,0.0074920654,-0.0011566163,77.67236394,12.84443901,0.0
152145370766,0.1478653,-0.43617553,9.830399,-0.0083526615,0.030932616,0.0042831423,77.67236394,12.84443901,0.0
152145370788,-0.14136048,-0.45389405,9.773657,-0.0066467286,0.030348206,0.0067840577,77.67236394,12.84443901,0.0
152145370810,-0.021166991,-0.5278732,9.751991,0.0046447753,-0.024041748,0.010191346,77.67236394,12.84443901,0.0
152145370832,-0.002128601,-0.46406707,9.823935,0.009335327,0.01197052,1.235962E-4,77.67236394,12.84443901,0.0
152145370854,-0.049298096,-0.43892822,9.767673,0.01301117,0.0060043335,0.0061965943,77.67236394,12.84443901,0.0
152145370876,0.008877563,-0.38661194,9.827408,0.0026184083,0.030397033,0.0096588135,77.67236394,12.84443901,0.0
152145370898,-0.14255676,-0.44586945,9.771502,0.005337524,0.021611024,-0.0014221191,77.67236394,12.84443901,0.0
152145370920,-0.17835084,-0.6006607,9.951428,0.022599792,-0.05376587,-0.0018478393,77.67236394,12.84443901,0.0
152145370942,0.054014586,-0.52093047,9.7287655,0.014660644,-0.04726715,-0.0062698363,77.67236394,12.84443901,0.0
152145370964,0.18006745,-0.35058135,9.883911,0.009443665,-0.022547912,0.007635498,77.67236394,12.84443901,0.0
152145370986,0.13062592,-0.18741456,9.720624,-8.972168E-4,0.020866394,2.2888184E-4,77.6643288,12.84200923,0.0
152145371008,-0.04906311,-0.1270813,9.815435,0.005871582,0.0146835325,-0.0022216798,77.6643288,12.84200923,0.0
152145371030,0.063467406,-0.06555176,9.845482,6.408691E-5,-0.017382812,0.0024154664,77.6643288,12.84200923,0.0
152145371052,0.08238526,-0.16131897,9.743608,-8.9569093E-4,-0.017228698,-3.8146973E-5,77.6643288,12.84200923,0.0
152145371074,0.17372742,-0.1286377,9.758574,-0.0026565553,0.007920837,5.523682E-4,77.6643288,12.84200923,0.0
152145371096,0.05832367,0.07391052,9.859489,-0.0012695312,-7.6293945E-4,0.0011367798,77.66435054,12.84201026,0.0
152145371118,0.107406616,-0.034068298,9.8005905,8.6364744E-4,0.013568115,6.0577394E-4,77.66435054,12.84201026,0.0
152145371140,0.02288971,-0.050109863,9.762644,-0.0016937256,0.029067993,0.006787109,77.66435054,12.84201026,0.0
152145371162,-0.09024048,0.20894471,9.788981,0.0020889281,0.045152284,0.008383179,77.66435054,12.84201026,0.0
152145371184,-0.26382142,0.5904602,9.765877,0.009654236,0.042756654,0.025801087,77.66435054,12.84201026,0.0
152145371206,-0.54430234,0.46069488,9.823816,-0.00819397,0.06875,0.09152679,77.66436866,12.84200765,0.0
152145371228,-0.47007903,0.5452072,9.515566,-0.023588562,0.07519684,0.12971802,77.66436866,12.84200765,0.0
152145371250,-0.24035645,0.65581816,10.020979,0.016682435,0.06470184,0.04358826,77.66436866,12.84200765,0.0
152145371272,-0.19390869,0.6865875,9.781796,-0.014849854,0.03396759,-0.071998596,77.66436866,12.84200765,0.0
152145371294,-0.30212706,0.53718567,9.834948,0.02355652,0.04105072,-0.107048035,77.66435051,12.84200823,0.0
152145371317,0.39614564,0.40586853,9.924253,0.03447876,-0.0634552,-0.31178743,77.66435051,12.84200823,0.0
152145371339,-0.27746734,0.4893036,9.457382,0.0515213,-0.22910614,-0.47317505,77.66435051,12.84200823,0.0
152145371361,-2.071324,0.6513901,9.749835,0.012579346,0.03955841,0.116932675,77.66435051,12.84200823,0.0
152145371383,-0.04187622,0.6363098,9.680285,-0.0387146,0.073487855,0.29179686,77.66435051,12.84200823,0.0
152145371405,-0.08592834,0.64528656,9.876608,0.012902832,0.06171875,-0.001902771,77.66432953,12.84201588,1.6
152145371427,-0.1046051,0.56914824,9.943886,0.010769653,0.002166748,-0.054527283,77.66432953,12.84201588,1.6
152145371449,0.0695755,0.41484222,9.606422,0.02052002,-0.13339233,-0.17996216,77.66432953,12.84201588,1.6
152145371471,-1.64348,0.6628876,9.914795,-0.044786073,-0.08273926,0.055836488,77.66432953,12.84201588,1.6
152145371493,-0.15955201,0.6248169,9.607617,-0.0052078245,0.16387787,0.2677719,77.6642823,12.84202813,2.24
152145371515,0.87283325,0.45782167,10.0886135,-0.0015853882,0.094155885,-0.13426057,77.6642823,12.84202813,2.24
152145371537,-0.47750244,0.35571137,9.84285,0.028086852,-0.110917665,-0.25868684,77.6642823,12.84202813,2.24
152145371559,-0.8702713,0.43255767,9.710211,0.0060821534,-0.106492616,0.03176422,77.6642823,12.84202813,2.24
152145371581,-0.44889373,0.4276535,9.954298,0.0018218994,-0.06095276,0.11560516,77.6642823,12.84202813,2.24
152145371603,-0.69729614,0.26473084,9.728887,-0.004408264,0.025019836,0.15949401,77.66425759,12.84204302,2.25
152145371625,0.048262022,0.28220367,9.872897,-0.008670044,0.037164308,0.07368469,77.66425759,12.84204302,2.25
152145371647,-0.18121795,0.27262878,10.006376,-0.0031845092,0.027095031,0.044813536,77.66425759,12.84204302,2.25
152145371669,-0.06545868,0.28388366,9.792691,0.0041152956,-0.018019104,-0.024165343,77.66425759,12.84204302,2.25
152145371691,-0.26729125,0.1822464,9.895642,0.0043823244,-0.12449646,-0.04019928,77.66423422,12.84205957,3.19
152145371713,-0.9465271,0.18404236,9.741694,-0.0062789917,-0.089505,0.15208587,77.66423422,12.84205957,3.19
152145371735,-0.6617386,0.17350921,9.8602085,-0.010961914,0.07167816,0.27592468,77.66423422,12.84205957,3.19
152145371757,-0.30272827,0.09749298,9.593371,-0.033229064,0.1467804,0.160289,77.66423422,12.84205957,3.19
152145371779,0.07149048,0.08252716,9.938377,-0.010430908,0.16270599,0.06382904,77.66423422,12.84205957,3.19
152145371801,0.2781128,0.10395813,9.890253,0.008695984,0.03865204,-0.16392823,77.66420285,12.84207564,3.18
152145371824,-0.57327116,0.057389833,9.680521,0.011302185,-0.051634215,-0.1027832,77.66420285,12.84207564,3.18
152145371845,-0.6269043,0.06385346,9.809331,-0.0069137574,-0.01839447,0.04774475,77.66420285,12.84207564,3.18
152145371867,-0.33720398,-0.055497743,9.753191,-0.0016921997,-0.008325195,5.493164E-4,77.66420285,12.84207564,3.18
152145371889,-0.74086607,0.015129089,9.884028,-0.01266632,0.017616272,0.0458786,77.66413918,12.84209342,5.08
152145371911,-0.4397934,0.004121399,9.726132,-0.0043563843,0.09495697,0.043643188,77.66413918,12.84209342,5.08
152145371934,0.12715301,0.045657348,9.907614,-0.0040893555,0.07706146,-0.08014679,77.66413918,12.84209342,5.08
152145371955,-0.4380005,-0.08542633,9.81017,0.024938965,-0.005770874,-0.1154602,77.66413918,12.84209342,5.08
152145371977,-0.43141633,0.035723876,9.746364,0.002090454,0.0010498047,-0.058361817,77.66413918,12.84209342,5.08
152145371999,-0.120046996,0.05308075,10.086218,0.021586608,-0.01636963,-0.09841766,77.66408101,12.84210164,5.24
152145372022,-0.30260468,-0.06615448,9.799753,0.020523071,-0.12332611,-0.1314911,77.66408101,12.84210164,5.24
152145372043,-0.9404251,-0.09883118,9.579488,-9.994507E-4,-0.09850464,0.036187746,77.66408101,12.84210164,5.24
152145372066,-0.45727387,-0.0869812,9.860326,-0.0073379516,0.03891907,0.105854794,77.66408101,12.84210164,5.24
152145372088,0.08824921,-0.047117613,9.934789,0.0015014649,0.016175842,-0.050746154,77.66408101,12.84210164,5.24
152145372110,-0.57231444,-0.11020508,9.798917,0.0125869755,-0.042524718,-0.02219696,77.66403109,12.84212325,5.46
152145372132,-0.58500516,-0.20022735,9.750076,-0.0040359497,0.020118713,0.067079164,77.66403109,12.84212325,5.46
152145372154,-0.10915069,-0.014196778,9.758217,-0.004888916,0.032476805,-0.014787292,77.66403109,12.84212325,5.46
152145372176,-0.42794648,-0.051545717,9.777847,0.011305237,0.013621521,-0.016444396,77.66403109,12.84212325,5.46
152145372198,-0.3873642,-0.06159973,9.72254,0.0010223389,0.018844604,-0.0013671875,77.66398171,12.84214811,5.12
152145372220,-0.28010407,0.011303711,9.908091,0.007949829,0.0034454346,-0.030558776,77.66398171,12.84214811,5.12
152145372242,-0.47690734,-0.1048172,9.751989,0.013595581,-0.015252685,-0.020332336,77.66398171,12.84214811,5.12
152145372264,-0.28153992,-0.07189484,9.757617,0.009654236,-0.024256896,-0.014846802,77.66398171,12.84214811,5.12
152145372286,-0.5466965,-0.17412873,9.82166,-0.0026519776,-0.014399719,0.015838623,77.66398171,12.84214811,5.12
152145372308,-0.45057067,-0.09619751,9.790418,-0.012457276,0.015272522,0.016798401,77.66393117,12.84216996,5.79
152145372330,-0.38437194,-0.080755614,9.767794,-0.0018005371,0.03604431,0.0053451536,77.66393117,12.84216996,5.79
152145372352,-0.34115753,-0.051664732,9.782515,-0.014477539,0.035458375,-0.017137146,77.66393117,12.84216996,5.79
152145372374,-0.34342498,-0.025691222,9.910608,0.007312012,0.013143921,-0.033862304,77.66393117,12.84216996,5.79
152145372396,-0.5857239,-0.088415526,9.840813,0.008216858,-0.006944275,-0.030612182,77.66388633,12.84219008,5.87
152145372418,-0.33420867,-0.075489804,9.73559,1.6937256E-4,0.005947876,-0.016925048,77.66388633,12.84219008,5.87
152145372440,-0.4774994,-0.13151398,9.706738,0.003579712,-0.008435058,-0.025817871,77.66388633,12.84219008,5.87
152145372462,-0.46313936,-0.11463318,9.723856,-0.004248047,-3.8909912E-4,-0.0144699095,77.66388633,12.84219008,5.87
152145372484,-0.37766725,-0.16586915,9.750313,-0.008724975,0.02438202,-0.0073394775,77.66388633,12.84219008,5.87
152145372506,-0.16912994,-0.20573577,9.759053,-6.8054197E-4,0.0012619018,-0.059214782,77.66382456,12.84221175,6.48
152145372529,-0.3753891,-0.1795166,9.711766,0.015570069,-0.04955597,-0.052980043,77.66382456,12.84221175,6.48
152145372550,-0.40519866,-0.2190216,9.826927,0.007788086,-0.050408937,-0.0048294067,77.66382456,12.84221175,6.48
152145372572,-0.51832426,-0.27600402,9.840576,-0.04084015,-0.018501282,0.026438903,77.66382456,12.84221175,6.48
152145372594,-0.39562225,-0.2320694,9.808134,0.024942016,0.036686707,0.027934264,77.66377877,12.84223054,5.73
152145372616,-0.2550827,-0.20597228,9.897318,-0.01809845,0.05569916,0.009181214,77.66377877,12.84223054,5.73
152145372639,-0.22396088,-0.15461731,9.760849,0.0141799925,0.024862671,-0.053144835,77.66377877,12.84223054,5.73
152145372660,-0.41944885,-0.17125702,9.893488,9.2010497E-4,-0.0038009644,-0.035618592,77.66377877,12.84223054,5.73
152145372682,-0.41309816,-0.12445374,10.009485,0.014715577,0.009681702,-0.011706543,77.66377877,12.84223054,5.73
152145372705,-0.37694854,-0.295636,9.90199,0.029895019,0.027468871,-0.0244339,77.66372213,12.84225277,6.29
152145372727,-0.2827347,-0.22943573,9.745047,-0.014265442,0.011598205,-0.046694946,77.66372213,12.84225277,6.29
152145372749,-0.40663758,-0.3098816,9.782278,0.007522583,-0.0022018433,-0.040626526,77.66372213,12.84225277,6.29
152145372771,-0.48911744,-0.24403839,9.784792,0.008108521,0.012980652,-0.017297363,77.66372213,12.84225277,6.29
152145372793,-0.3130234,-0.22812042,9.780001,-0.014691162,0.029653931,-0.0359375,77.66366496,12.84228659,6.83
152145372815,-0.35480195,-0.18250886,9.738226,-0.0076095583,0.014154052,-0.058786012,77.66366496,12.84228659,6.83
152145372837,-0.39214936,-0.31155854,9.629526,-0.026786804,0.006590271,-0.050212096,77.66366496,12.84228659,6.83
152145372859,-0.39155275,-0.18238983,9.781077,0.0037384033,0.00456543,-0.057829283,77.66366496,12.84228659,6.83
152145372881,-0.5343704,-0.31957856,9.695727,0.009973144,0.015910339,-0.034712218,77.66366496,12.84228659,6.83
152145372903,-0.43429106,-0.30294037,9.558177,-0.01889801,0.047657777,-0.040252686,77.66360395,12.84232014,7.06
152145372925,-0.28584594,-0.41139525,9.825134,-4.272461E-5,0.07753601,-0.05463562,77.66360395,12.84232014,7.06
152145372947,0.13661194,-0.5415176,9.901029,0.030853271,0.0057342527,-0.15578309,77.66360395,12.84232014,7.06
152145372969,-0.49809113,-0.4846588,9.764441,-5.218506E-4,-0.1042572,-0.12749939,77.66360395,12.84232014,7.06
152145372991,-0.55124664,-0.48190156,9.64916,0.0071487427,-0.0859314,-0.044036865,77.66355479,12.84235389,6.84
152145373013,-0.61828613,-0.5063278,9.500958,0.018870544,-0.015090942,0.012321472,77.66355479,12.84235389,6.84
152145373035,-0.394545,-0.4455139,10.101662,-0.03216095,0.04147949,-0.0078140255,77.66355479,12.84235389,6.84
152145373057,-0.17559357,-0.56534576,9.71907,0.029412841,0.043022156,-0.063957214,77.66355479,12.84235389,6.84
152145373079,-0.13776398,-0.42193145,10.045877,-0.01607666,-0.03347168,-0.102996826,77.66355479,12.84235389,6.84
152145373101,-0.2748352,-0.5323044,9.493297,0.024191285,-0.099357605,-0.07231903,77.66349556,12.84239336,7.09
152145373123,-0.5894348,-0.41666412,9.596247,-0.019429017,-0.090567015,0.004386902,77.66349556,12.84239336,7.09
152145373145,-0.47990113,-0.5473892,9.681841,0.034474183,-0.038264465,0.023405457,77.66349556,12.84239336,7.09
152145373167,-0.451886,-0.42504424,9.690099,-0.05266876,0.02618866,0.04976959,77.66349556,12.84239336,7.09
152145373189,-0.18864135,-0.45485383,9.6324005,0.016741943,0.06113281,0.008433533,77.66344597,12.84243782,7.3
152145373211,-0.18193817,-0.370932,9.97908,-0.010110473,0.019534301,-0.043663025,77.66344597,12.84243782,7.3
152145373234,-0.30200806,-0.38817137,9.833873,0.015461731,-0.025268555,-0.040519714,77.66344597,12.84243782,7.3
152145373255,-0.39562225,-0.34986418,9.871341,0.014555359,-0.036720276,-0.0039260862,77.66344597,12.84243782,7.3
152145373277,-0.39442596,-0.44359893,9.845843,0.005337524,-0.010887146,0.017810058,77.66344597,12.84243782,7.3
152145373299,-0.23365326,-0.49674988,9.485876,-0.0067001344,0.0068588257,0.0055038454,77.66339605,12.84246603,6.46
152145373321,-0.27112275,-0.36530915,9.620189,-0.045903016,-0.013121033,-0.0018478393,77.66339605,12.84246603,6.46
152145373343,-0.31781158,-0.33873445,10.019783,0.064093016,-0.018130492,0.0038513183,77.66339605,12.84246603,6.46
152145373365,-0.31577453,-0.49315643,9.853621,-0.00787201,-0.0352829,0.011257934,77.66339605,12.84246603,6.46
152145373387,-0.3633011,-0.33945006,9.67621,0.010237122,-0.032777406,0.025102234,77.6633453,12.84250853,6.91
152145373410,-0.44279328,-0.46753693,9.943888,0.018127441,-0.011097717,0.0472641,77.6633453,12.84250853,6.91
152145373432,-0.4785843,-0.41007996,9.83447,-0.010214234,0.018360902,0.059516907,77.6633453,12.84250853,6.91
152145373454,-0.38496858,-0.3605194,9.897919,-0.007711792,0.06320953,0.046200562,77.6633453,12.84250853,6.91
152145373476,-0.23042145,-0.37703705,9.928324,0.009121704,0.07652588,0.009179687,77.6633453,12.84250853,6.91
152145373498,-0.14770202,-0.31921846,9.725894,0.018869018,0.015805054,-0.049150087,77.66329373,12.84254428,6.8
152145373520,-0.406514,-0.3068878,9.95059,0.0025665283,-0.033470154,-0.021292115,77.66329373,12.84254428,6.8
152145373542,-0.19163665,-0.4216919,9.932993,0.038098145,-0.06766357,-0.028375244,77.66329373,12.84254428,6.8
152145373516,-0.62678224,-0.40576935,9.949272,-4.6539307E-4,-0.10638733,0.02462616,77.66329373,12.84254428,6.8
152145373538,-0.7765396,-0.5101563,9.732599,-0.018365478,-0.0026809692,0.117837526,77.66329373,12.84254428,6.8
152145373560,-0.36473694,-0.4623947,9.714041,0.0056564333,0.10928345,0.088438414,77.66323472,12.84258804,7.14
152145373582,-0.004046631,-0.49435577,10.031751,-0.0022781373,0.096551515,-0.019796753,77.66323472,12.84258804,7.14
152145373604,-0.18337707,-0.5217697,9.6012745,0.0070480346,0.019319152,-0.04472809,77.66323472,12.84258804,7.14
152145373626,-0.30236664,-0.46059877,9.640419,0.019509887,-0.043325804,-0.045422364,77.66323472,12.84258804,7.14
152145373648,-0.5557953,-0.33466187,9.638144,-0.018632507,-0.06399079,0.006996155,77.66317837,12.84260706,6.73
152145373670,-0.41836852,-0.34711456,9.79305,-0.013095093,-0.016426086,0.03592224,77.66317837,12.84260706,6.73
152145373692,-0.45224762,-0.4135498,9.841652,0.008802796,-0.0073196413,0.023669433,77.66317837,12.84260706,6.73
152145373714,-0.62486726,-0.5463089,9.604146,-0.015917968,0.041799925,0.06995239,77.66317837,12.84260706,6.73
152145373736,-0.22802886,-0.46275178,9.724459,-0.014427185,0.10821991,0.032936096,77.66317837,12.84260706,6.73
152145373758,-0.10652008,-0.5047699,9.890734,0.015727233,0.074502565,-0.058789063,77.66312239,12.84265144,6.58
152145373780,-0.14889984,-0.43856812,9.80047,-3.0670167E-4,0.004722595,-0.06763001,77.66312239,12.84265144,6.58
152145373802,-0.6243912,-0.43043214,9.79257,0.013543701,-0.044546507,-0.049041748,77.66312239,12.84265144,6.58
152145373824,-0.42459106,-0.44730836,10.051025,0.008854675,-0.014399719,-0.007762146,77.66312239,12.84265144,6.58
152145373846,-0.3208023,-0.5059692,9.678729,-0.007022095,0.007015991,-0.008773804,77.66305372,12.84269591,7.22
152145373868,-0.1976181,-0.85073394,9.639585,-0.014746094,-0.019033814,-0.043130495,77.66305372,12.84269591,7.22
152145373891,-0.3182907,-1.0276657,9.582003,-0.021882629,-0.064842224,-0.042704772,77.66305372,12.84269591,7.22
152145373913,-0.52814484,-0.9403976,9.734751,-0.004463196,-0.043696593,0.017329406,77.66305372,12.84269591,7.22
152145373935,-0.41154176,-1.0007309,9.680403,-0.0113891605,9.307861E-5,0.033576965,77.66305372,12.84269591,7.22
152145373957,-0.52885896,-0.8190109,9.718234,-0.004411316,0.068164065,0.057652283,77.66300375,12.84273655,7.1
152145373979,-0.0872467,-0.80345,9.954176,0.0018218994,0.09862976,-0.01282196,77.66300375,12.84273655,7.1
152145374001,0.042996217,-0.5636673,9.932394,0.027500916,-0.019084167,-0.12749939,77.66300375,12.84273655,7.1
152145374023,-0.56908417,-0.5770798,9.812922,0.01737671,-0.10308838,-0.046328735,77.66300375,12.84273655,7.1
152145374045,-0.48600158,-0.5521744,9.7897005,0.018389892,-0.07511902,0.025691222,77.66296382,12.84276759,6.14
152145374067,-0.3756302,-0.48549804,9.658854,-0.005581665,-0.054774474,0.03890381,77.66296382,12.84276759,6.14
152145374089,-0.6361206,-0.2473938,9.905218,-0.020019531,-0.027503967,0.063031,77.66296382,12.84276759,6.14
152145374111,-0.32451478,-0.46610564,9.800711,0.011572266,0.019802857,0.07054138,77.66296382,12.84276759,6.14
152145374133,-0.06558075,-0.16191864,9.886304,-0.0010528564,-0.025105286,1.5258789E-5,77.66296382,12.84276759,6.14
152145374155,-0.42471313,-0.31885988,9.800471,0.014178467,-0.09717254,0.018232727,77.66290902,12.84280967,6.55
152145374177,-0.69322205,-0.1558136,9.633954,-0.012242126,-0.051101685,0.12524262,77.66290902,12.84280967,6.55
152145374199,-0.48420715,-0.22680359,9.849553,0.0029418946,0.047976684,0.14234161,77.66290902,12.84280967,6.55
152145374221,-0.17774963,-0.27121735,9.581759,-0.0647583,0.067791745,0.068092346,77.66290902,12.84280967,6.55
152145374243,-0.14506683,-0.2859375,9.823694,0.05040283,0.05378418,0.039167784,77.66285515,12.84284416,6.7
152145374265,-0.19881745,-0.24871063,9.925212,-0.02832489,-1.373291E-5,0.00582428,77.66285515,12.84284416,6.7
152145374287,-0.36689147,-0.2048935,9.6951275,0.051150512,-0.030541992,0.022975158,77.66285515,12.84284416,6.7
152145374309,-0.44446412,-0.1987915,9.969861,-0.004837036,-0.031340025,0.058023073,77.66285515,12.84284416,6.7
152145374331,-0.3302597,-0.26654816,9.833631,0.02286682,0.008720398,0.06889038,77.66285515,12.84284416,6.7
152145374353,-0.12531586,-0.2586441,9.853625,-0.025930787,0.01633606,0.04625549,77.66280814,12.84286914,6.47
152145374375,-0.26453704,-0.2584091,9.6400585,-0.025608826,-0.023509216,0.024150085,77.66280814,12.84286914,6.47
152145374397,-0.4186035,-0.31933898,10.002663,0.023181152,-0.016744995,0.0648941,77.66280814,12.84286914,6.47
152145374419,-0.3707199,-0.61358947,9.644012,-0.023849487,0.010955811,0.069955446,77.66280814,12.84286914,6.47
152145374441,-0.30392608,-0.10182343,9.751511,-0.0018005371,0.035406493,0.06489563,77.66274035,12.84289377,6.71
152145374463,-0.0982605,-0.27133483,10.057368,0.033355713,0.015324402,0.015254212,77.66274035,12.84289377,6.71
152145374485,-0.3574356,-0.3763214,9.730205,-0.017993163,-0.014402771,0.03048706,77.66274035,12.84289377,6.71
152145374507,-0.20432739,-0.44479522,9.727928,0.023342896,-0.004759216,0.048384093,77.66274035,12.84289377,6.71
152145374529,-0.4152542,-0.22752228,9.817113,0.0056030275,0.0029144287,0.052700806,77.66274035,12.84289377,6.71
152145374551,-0.44626313,-0.22907715,9.9028225,-0.026037598,0.026409913,0.055149842,77.66267776,12.84292548,6.76
152145374573,-0.3205658,-0.24691467,9.64832,-0.01676941,0.03689728,0.042684935,77.66267776,12.84292548,6.76
152145374596,-0.3253525,-0.28294525,9.970222,0.021421814,0.04685669,0.022976685,77.66267776,12.84292548,6.76
152145374617,-0.24047546,-0.33872834,9.697763,-0.019699097,0.036790468,0.0064071654,77.66267776,12.84292548,6.76
152145374640,-0.34498596,-0.28115234,9.445055,-0.06609039,0.007975769,-0.0050445558,77.66261114,12.84295561,7.05
152145374662,-0.38448945,-0.3358551,9.62737,0.028138733,0.014048767,0.0017211915,77.66261114,12.84295561,7.05
152145374684,-0.29626313,-0.20681152,9.882474,0.001928711,0.020706177,-0.004194641,77.66261114,12.84295561,7.05
152145374706,-0.30715483,-0.32328948,9.753187,-0.014422608,0.022727966,-0.012025451,77.66261114,12.84295561,7.05
152145374728,-0.29614258,-0.3876953,9.534357,0.0010772705,-0.015039062,-0.03055725,77.66261114,12.84295561,7.05
152145374750,-0.50324094,-0.47149047,9.735231,-0.009364319,-6.546021E-4,0.010404969,77.66253944,12.84298183,7.78
152145374772,-0.374794,-0.48513946,9.68974,0.01710968,0.04350128,0.0077941893,77.66253944,12.84298183,7.78
152145374794,-0.27495423,-0.9305817,9.8997135,-0.038122557,0.041264344,-0.023420716,77.66253944,12.84298183,7.78
152145374816,-0.21833038,-1.1360031,9.646167,0.011520386,0.023794556,-0.042913817,77.66253944,12.84298183,7.78
152145374838,-0.25640258,-0.9579941,9.787305,-0.008993531,-0.008224487,-0.050318908,77.6624808,12.84300927,7.89
152145374860,-0.3680893,-0.94913787,9.8129225,0.028134156,-0.017118836,-0.03945465,77.6624808,12.84300927,7.89
152145374882,-0.45500183,-1.0895569,9.899714,-0.006169128,-0.034216307,-0.023208618,77.6624808,12.84300927,7.89
152145374904,-0.4102295,-0.97331846,9.571347,0.013967896,-0.0077423095,8.666992E-4,77.6624808,12.84300927,7.89
152145374926,-0.28549194,-1.0815384,10.219699,0.008000183,0.008346558,-0.008720398,77.6624808,12.84300927,7.89
152145374948,-0.2970993,-1.1480942,9.715358,-0.03828583,0.016444396,-0.01431427,77.66242186,12.84303967,6.9
152145374970,-0.36665496,-1.0742356,9.637067,0.0081604,0.026351929,-0.019055177,77.66242186,12.84303967,6.9
152145374992,-0.18648835,-1.0705246,9.850512,-0.001902771,0.023051452,-0.045899965,77.66242186,12.84303967,6.9
152145375014,-0.111904904,-1.1026016,9.689981,0.019348145,-0.038371276,-0.07354126,77.66242186,12.84303967,6.9
152145375036,-0.44410247,-1.0546005,9.777847,0.0016098022,-0.09946289,-0.048667908,77.66242186,12.84303967,6.9
152145375058,-0.5790207,-1.1057174,9.871103,0.027339172,-0.08151398,0.031448364,77.66236119,12.84306691,6.46
152145375080,-0.55938566,-1.0908737,9.64832,-0.016288757,-0.0031066895,0.08305969,77.66236119,12.84306691,6.46
152145375102,-0.26585692,-1.1036804,9.573984,-0.011921692,0.067524716,0.05999756,77.66236119,12.84306691,6.46
152145375124,-0.010037231,-1.1027237,9.881517,0.026913453,0.033328246,-0.027946472,77.66236119,12.84306691,6.46
152145375146,-0.17703399,-1.1672516,9.853264,0.010290528,-0.042791747,-0.051387023,77.6622997,12.84309122,6.42
152145375168,-0.376828,-0.75628203,10.584932,0.17706147,-0.059358217,0.010298157,77.6622997,12.84309122,6.42
152145375191,-0.31577605,-1.2954575,10.279912,0.13418427,-0.04976654,0.043432616,77.6622997,12.84309122,6.42
152145375212,-0.27279815,-1.0701644,8.725118,-0.3336319,-0.07448578,0.051846314,77.6622997,12.84309122,6.42
152145375234,-0.4007721,0.13807526,8.124171,-0.10758209,-0.018450927,0.08992767,77.6622997,12.84309122,6.42
152145375256,-0.35420227,-0.35477448,10.131708,-0.15834351,2.5024413E-4,0.080021665,77.6622609,12.8431177,5.1
152145375278,-0.43620148,0.14501496,9.87146,0.19645233,0.09100952,0.10958252,77.6622609,12.8431177,5.1
152145375301,-0.21306458,-0.7315048,11.014214,0.0039016723,0.1046463,0.04763794,77.6622609,12.8431177,5.1
152145375323,-0.06546173,-0.020063782,9.63994,0.03313904,0.051972963,-0.04057312,77.6622609,12.8431177,5.1
152145375344,-0.19451141,-0.6992981,10.417578,0.055888366,-0.02255249,-0.051489256,77.66221847,12.84313586,4.76
152145375367,-0.5872803,-0.54116213,9.3314495,-0.10033874,-0.026068116,0.011842346,77.66221847,12.84313586,4.76
152145375389,-0.4772644,-0.7645432,9.746961,0.05737915,0.01473999,0.021325683,77.66221847,12.84313586,4.76
152145375411,-0.38975373,-1.1908325,10.251062,-0.010481263,0.010266113,0.018608093,77.66221847,12.84313586,4.76
152145375433,-0.32355347,-0.81949157,10.015831,0.0311203,0.046113588,0.0025741577,77.66221847,12.84313586,4.76
152145375455,-0.12124328,-1.2063935,9.814481,-0.02480774,0.033006288,-0.034074403,77.6621563,12.84316542,6.14
152145375477,0.084776305,-0.675,9.868708,0.040229797,-0.046572875,-0.12201385,77.6621563,12.84316542,6.14
152145375499,-0.47846374,-0.886409,10.030676,0.06574402,-0.14745331,-0.051174928,77.6621563,12.84316542,6.14
152145375521,-0.7158524,-0.53553617,9.566917,0.021800231,-0.116773985,0.096321106,77.6621563,12.84316542,6.14
152145375543,-0.22766876,-0.52835083,9.940653,-0.010218811,-0.075761415,0.101911925,77.66211253,12.84318365,5.1
152145375565,-0.34055787,-0.33011168,9.759054,0.041238405,-0.061912537,0.11256714,77.66211253,12.84318365,5.1
152145375587,-0.34163207,-0.55816346,10.122251,0.0531723,-0.027188111,0.15101929,77.66211253,12.84318365,5.1
152145375609,-0.26549834,-0.5832993,9.638745,-0.04158783,0.0015823364,0.15789184,77.66211253,12.84318365,5.1
152145375631,-0.09203796,-0.37967223,9.632039,-0.009790039,0.026245117,0.13067627,77.66211253,12.84318365,5.1
152145375653,-0.3697632,-0.40996248,9.9197035,0.014443969,0.06970825,0.14862518,77.66206218,12.84318797,5.32
152145375675,-0.35647735,-0.43438262,9.78539,-0.019325256,0.13985749,0.152034,77.66206218,12.84318797,5.32
152145375697,0.14343567,-0.28187257,9.652153,0.020309448,0.16797943,0.04955139,77.66206218,12.84318797,5.32
152145375719,0.14211579,-0.34196472,9.947836,-0.023905944,0.09042664,-0.08291779,77.66206218,12.84318797,5.32
152145375741,0.0779541,-0.38948974,9.498922,-0.030351257,-0.008166504,-0.12494354,77.6620156,12.84320012,5.25
152145375763,-0.26812896,-0.33047333,9.571226,-0.037701417,-0.07160644,-0.091119386,77.6620156,12.84320012,5.25
152145375785,-0.6316925,-0.15701446,9.833273,0.019456482,-0.057225037,0.014291381,77.6620156,12.84320012,5.25
152145375807,-0.29865876,-0.20621338,10.03199,0.009654236,-0.011740113,0.035176087,77.6620156,12.84320012,5.25
152145375829,-0.2906372,-0.2778,9.636229,0.021800231,-0.020581055,0.0012435913,77.6620156,12.84320012,5.25
152145375851,-0.49043578,-0.27289122,9.941011,-0.026676942,0.017028809,0.041992188,77.66196729,12.84320652,5.02
152145375873,-0.31577605,-0.3141907,9.52466,-0.012776184,0.09234314,0.055360414,77.66196729,12.84320652,5.02
152145375896,0.012591553,-0.17161408,10.090891,0.022010803,0.09255829,-0.041903686,77.66196729,12.84320652,5.02
152145375918,-0.15033722,-0.35034332,9.653351,0.018125916,0.021983337,-0.107896425,77.66196729,12.84320652,5.02
152145375940,-0.2973404,-0.28929138,9.448164,-0.11115265,-0.038743593,-0.089465335,77.66191004,12.84321687,5.63
152145375961,-0.30703735,-0.16311797,9.571108,0.020628357,-0.03330841,-0.051438905,77.66191004,12.84321687,5.63
152145375983,-0.18193817,-0.38434297,9.940414,0.033148192,-0.061750792,-0.05846863,77.66191004,12.84321687,5.63
152145376006,-0.40065002,-0.4458725,9.738104,-0.06470795,-0.087905884,-0.0117553715,77.66191004,12.84321687,5.63
152145376028,-0.56453246,-0.2914459,9.761806,0.032984924,-0.042149354,0.057279967,77.66191004,12.84321687,5.63
152145376050,-0.6154114,-0.2415268,10.443555,0.037512206,0.046913147,0.10133056,77.66186906,12.84322415,4.63
152145376072,-0.21725158,-0.5961121,9.410579,0.007038879,0.11018829,0.052966308,77.66186906,12.84322415,4.63
152145376094,-0.10915222,-0.11582947,9.548721,-0.016130066,0.12712555,-0.020704651,77.66186906,12.84322415,4.63
152145376116,0.06634216,-0.3478302,10.283623,-0.046647646,0.0821167,-0.112104796,77.66186906,12.84322415,4.63
152145376138,-0.055877686,-0.23170929,10.043724,0.08566284,-0.05179291,-0.16707306,77.66186906,12.84322415,4.63
152145376160,-0.30272523,-0.37919617,9.910963,0.046461485,-0.18260804,-0.12371826,77.66180234,12.84323267,5.81
152145376182,-0.86596376,-0.7157043,10.100347,-0.031256102,-0.16992798,0.04103241,77.66180234,12.84323267,5.81
152145376204,-0.31685334,-1.1121826,9.933229,0.03351593,-0.07522736,0.09120636,77.66180234,12.84323267,5.81
152145376226,-0.39682007,-0.957637,9.684952,-0.014585877,-0.025215149,0.113046266,77.66180234,12.84323267,5.81
152145376248,0.17803192,-1.0075547,9.72673,0.02414093,-0.04140625,0.040234376,77.66174893,12.8432469,5.88
152145376270,-0.16074677,-1.1200851,9.910965,-0.027633667,-0.10042572,0.04875641,77.66174893,12.8432469,5.88
152145376292,-0.5551971,-1.0299408,9.690219,0.025476074,-0.04598694,0.15363464,77.66174893,12.8432469,5.88
152145376314,-0.64114684,-1.1072738,9.9605255,-0.010429382,0.11151886,0.27624053,77.66174893,12.8432469,5.88
152145376336,0.2486618,-0.93489075,9.8691845,0.018603515,0.20824584,0.14100952,77.66174893,12.8432469,5.88
152145376358,0.2175354,-0.9855316,9.90079,-0.0054214476,0.11524811,-0.059373476,77.66170023,12.84325915,5.55
152145376380,-0.12232208,-0.9176544,9.989134,0.013755798,0.053089906,-0.038494874,77.66170023,12.84325915,5.55
152145376402,-0.18038483,-1.0669327,9.61157,0.0043777465,0.010319519,-0.054151915,77.66170023,12.84325915,5.55
152145376424,-0.16769257,-0.9432678,8.503653,-0.059806824,-0.0147216795,-0.064755246,77.66170023,12.84325915,5.55
152145376446,-0.11848907,-0.57911074,11.522383,-0.010319519,-0.043162536,-0.067791745,77.66166161,12.84326664,4.93
152145376468,-0.479776,-1.5915024,8.77731,0.11979981,-0.05743866,-0.016125489,77.66166161,12.84326664,4.93
152145376490,-0.406514,-0.037301637,9.678726,-0.060227968,4.6386718E-4,0.064790346,77.66166161,12.84326664,4.93
152145376512,-0.46086273,-0.3935608,10.109922,0.079963684,0.07119904,0.03757324,77.66166161,12.84326664,4.93
152145376534,-0.09215546,0.029017638,10.502932,0.05066681,0.0914917,4.470825E-4,77.66166161,12.84326664,4.93
152145376556,0.24806671,-0.8844925,9.771742,-0.016127015,-0.010456848,-0.1405487,77.66162521,12.84327586,4.52
152145376578,-0.36102447,0.11951904,9.143741,-0.07168274,-0.13658753,-0.11093445,77.66162521,12.84327586,4.52
152145376601,-0.9191147,-0.14947052,10.171455,0.03501129,-0.08454895,0.057650756,77.66162521,12.84327586,4.52
152145376622,-0.7225479,-0.013241577,9.368441,-0.037756346,0.08020172,0.18069153,77.66162521,12.84327586,4.52
152145376644,0.22531891,-0.09943543,10.168463,0.02488861,0.12792663,0.016104126,77.66157427,12.84327999,4.99
152145376666,-0.22251892,-0.1272049,10.087778,0.0149292,0.023422241,-0.10667267,77.66157427,12.84327999,4.99
152145376689,-0.19163513,-0.35357818,9.844884,0.014762878,-0.023509216,-0.06891022,77.66157427,12.84327999,4.99
152145376711,-0.30140838,-0.29970855,9.604627,-0.0012130737,-0.06090088,-0.060279846,77.66157427,12.84327999,4.99
152145376733,-0.3855667,-0.32700348,9.666873,0.0062973024,-0.06611939,-0.0077590942,77.66157427,12.84327999,4.99
152145376755,-0.41992646,-0.16144256,9.748156,-0.010005188,-0.051579285,0.040818788,77.66152622,12.84329296,5.21
152145376777,-0.35264587,-0.15449981,9.917191,-0.0064346315,-0.027293395,0.03895569,77.66152622,12.84329296,5.21
152145376799,-0.31996614,-0.14073181,9.738462,-0.0069122314,-0.024893189,0.044761658,77.66152622,12.84329296,5.21
152145376821,-0.45739287,-0.3229309,9.765638,6.546021E-4,-0.0070999144,0.07453766,77.66152622,12.84329296,5.21
152145376843,-0.4053192,-0.29001158,9.663048,0.00491333,0.05719147,0.100794986,77.66149031,12.84331599,4.69
152145376865,-0.12579194,-0.13163452,9.978239,-0.006591797,0.08456726,0.04534607,77.66149031,12.84331599,4.69
152145376887,-0.012069702,-0.19100952,9.949272,0.026434327,0.02336731,-0.0644867,77.66149031,12.84331599,4.69
152145376909,-0.39167175,-0.30820924,9.788981,5.4321287E-4,0.0049331663,0.0018814087,77.66149031,12.84331599,4.69
152145376931,-0.10676117,-0.32185364,9.807533,-0.010749817,0.03503418,-0.0149002075,77.66149031,12.84331599,4.69
152145376953,-0.15320739,-0.21423645,9.898155,0.017004395,-0.02532196,-0.07290344,77.66144169,12.84332496,5.28
152145376975,-0.44853362,-0.20298004,9.8174715,-0.035147093,-0.051579285,-0.012718201,77.66144169,12.84332496,5.28
152145376997,-0.5457428,-0.21650848,9.472829,0.010507202,-0.0042770384,0.045399476,77.66144169,12.84332496,5.28
152145377019,-0.1577591,-0.3626755,9.849915,-0.0017990113,0.02518158,0.021591187,77.66144169,12.84332496,5.28
152145377041,-0.3087097,-0.13127288,9.792091,-0.019595336,-0.0014572144,-0.014260864,77.66138691,12.84333729,5.54
152145377063,-0.4449417,-0.097157285,9.491499,-0.0020629882,0.0062149046,0.012536621,77.66138691,12.84333729,5.54
152145377085,-0.083294675,-0.00821228,10.262674,0.022117615,0.02576599,0.0042266846,77.66138691,12.84333729,5.54
152145377107,-0.08892059,-0.2562515,10.133743,0.06222992,-0.032722473,-0.059638977,77.66138691,12.84333729,5.54
152145377129,-0.542868,-0.11690979,9.755101,-0.030241394,-0.08310852,-0.003501892,77.66138691,12.84333729,5.54
152145377151,-0.48073578,-0.16778564,9.342821,0.01775055,-0.026437378,0.08438873,77.66132742,12.8433463,5.45
152145377173,-0.45703584,-0.0045028687,10.339287,-0.014370727,0.04046936,0.080395505,77.66132742,12.8433463,5.45
152145377195,-0.23544922,-0.3274811,9.70698,0.016149903,0.06496887,0.03704071,77.66132742,12.8433463,5.45
152145377217,-0.3544403,-0.049632262,9.702309,-0.053575136,0.057670593,0.008540344,77.66132742,12.8433463,5.45
152145377239,-0.13441773,-0.12253418,10.100705,0.03815155,0.04616394,-0.025126647,77.66127055,12.84335379,5.87
152145377261,-0.26549682,-0.13390961,9.854222,-0.019430542,-0.004545593,-0.058789063,77.66127055,12.84335379,5.87
152145377283,-0.31266326,-0.15281829,9.7410965,0.01855011,-0.044654846,-0.049575806,77.66127055,12.84335379,5.87
152145377306,-0.49689636,-0.059690855,10.060242,0.010238647,-0.06047516,-5.691528E-4,77.66127055,12.84335379,5.87
152145377327,-0.49294585,-0.22847596,9.914436,-0.010906982,-0.024360657,0.03123169,77.66127055,12.84335379,5.87
152145377349,-0.43297273,-0.09189148,9.693449,0.0050186156,0.021714782,0.055628967,77.66121298,12.84336115,6.18
152145377371,-0.16027221,-0.22955474,9.98746,0.001876831,0.019477844,-0.0037658692,77.66121298,12.84336115,6.18
152145377394,-0.32056275,-0.17820282,9.68112,-0.010964965,-0.014454651,-0.0055801393,77.66121298,12.84336115,6.18
152145377416,-0.5444214,-0.24487762,9.873735,0.00907135,0.013247681,0.030966187,77.66121298,12.84336115,6.18
152145377438,-0.337323,-0.18370819,9.804781,-0.015489196,0.04994812,0.03048706,77.66121298,12.84336115,6.18
152145377460,-0.17858887,-0.13187408,9.799397,0.0051208497,0.034446716,-0.030398559,77.6611607,12.84336556,6.06
152145377482,-0.2389206,-0.21052246,9.687708,-0.013253784,-0.008274841,-0.052503966,77.6611607,12.84336556,6.06
152145377504,-0.45368195,-0.13941498,9.832197,0.016204834,-0.008329773,-0.010638428,77.6611607,12.84336556,6.06
152145377526,-0.25735778,-0.15700988,10.031992,0.0133804325,-0.02686615,-0.029655457,77.6611607,12.84336556,6.06
152145377548,-0.52287596,-0.1504242,9.613005,0.011569214,-0.04811859,-0.0023269653,77.66109621,12.84337225,6.43
152145377570,-0.5328125,-0.15737,9.810524,-0.0076065063,-0.0023101806,0.047210693,77.66109621,12.84337225,6.43
152145377592,-0.22718963,-0.13163146,9.962561,-0.00989685,0.037486266,0.025106812,77.66109621,12.84337225,6.43
152145377614,-0.1655365,-0.191008,9.757019,0.010934448,-0.0063583376,-0.046058655,77.66109621,12.84337225,6.43
152145377636,-0.37096405,-0.21782379,9.742892,0.009815979,-0.030328369,-0.006752014,77.66109621,12.84337225,6.43
152145377658,-0.33816224,-0.21662903,9.852907,-8.43811E-4,5.1574706E-4,0.027027894,77.66103726,12.84337999,6.25
152145377680,-0.36761016,-0.09835358,9.969501,0.03927002,-0.0015090943,0.0044937134,77.66103726,12.84337999,6.25
152145377702,-0.2071991,-0.23769684,9.812685,-0.027371217,-0.025320435,0.00433197,77.66103726,12.84337999,6.25
152145377724,-0.39239502,-0.24607544,9.708056,-0.014207458,-0.02808838,0.012217713,77.66103726,12.84337999,6.25
152145377746,-0.73608094,-0.15377656,9.859133,0.013436889,0.04350128,0.0807663,77.66097875,12.8433854,6.23
152145377768,0.030070495,-0.16383667,9.963635,-0.012081909,0.086804196,0.016848754,77.66097875,12.8433854,6.23
152145377790,-0.16314392,-0.2877365,9.592058,-0.008563233,0.012234497,-0.056604005,77.66097875,12.8433854,6.23
152145377812,-0.0799469,-0.16730805,9.915515,0.015193176,-0.03363037,-0.05218506,77.66097875,12.8433854,6.23
152145377834,-0.32954255,-0.16156311,9.917908,0.018229675,-0.08961029,-0.03695221,77.66097875,12.8433854,6.23
152145377856,-0.47199553,-0.18071595,9.680165,-0.010427857,-0.11011658,0.01674347,77.66091565,12.84339056,6.57
152145377878,-0.8110153,-0.23614044,9.774614,0.013542175,-0.019195557,0.12668152,77.66091565,12.84339056,6.57
152145377900,-0.1765503,-0.26247865,9.872058,-0.003451538,0.081427,0.10005341,77.66091565,12.84339056,6.57
152145377922,-0.1587143,-0.16934052,9.828845,-0.007818604,0.0786026,0.023136903,77.66091565,12.84339056,6.57
152145377944,-0.12232361,-0.19149017,9.703506,-0.0013717652,0.0469635,-0.016815186,77.66085193,12.84339642,6.63
152145377966,-0.19810028,-0.21172333,9.894444,-0.003237915,0.019004822,-0.021614075,77.66085193,12.84339642,6.63
152145377988,-0.27124023,-0.3382538,9.757855,-0.010591125,0.0012634278,-0.016871642,77.66085193,12.84339642,6.63
152145378011,-0.2526886,-0.27193603,9.659096,0.0035827637,-0.01930542,-0.021450806,77.66085193,12.84339642,6.63
152145378032,-0.32619017,-0.25697023,9.844287,0.014393616,-0.043643188,-0.013996887,77.66085193,12.84339642,6.63
152145378055,-0.6308548,-0.26104125,9.829083,-0.0042510987,-0.009020996,0.04939575,77.66079454,12.84340363,6.51
152145378077,-0.3682068,-0.2691803,9.876368,-0.017088318,0.05910797,0.055200197,77.66079454,12.84340363,6.51
152145378099,-0.14794159,-0.2403305,9.978838,0.00496521,0.073970035,-0.006323242,77.66079454,12.84340363,6.51
152145378121,-0.25736085,-0.4463547,9.469594,-0.026940918,0.029493714,-0.058947753,77.66079454,12.84340363,6.51
152145378143,-0.19067688,-0.33382416,9.829803,-0.038819887,-0.002203369,-0.045419313,77.66073455,12.84340662,6.43
152145378165,-0.15320739,-1.0858505,10.024092,0.049020387,-0.053175353,-0.07008362,77.66073455,12.84340662,6.43
152145378187,-0.45859224,-0.9590744,9.782756,-0.0014266968,-0.09461518,-0.011437988,77.66073455,12.84340662,6.43
152145378209,-0.5539993,-0.90639955,9.65215,0.025366211,-0.038638305,0.051847838,77.66073455,12.84340662,6.43
152145378231,-0.52742463,-0.9758316,9.891093,-0.037327576,0.02810669,0.07805176,77.66073455,12.84340662,6.43
152145378253,-0.18277892,-0.96014863,9.613485,0.036447145,0.079667665,0.032724,77.66068279,12.84341945,5.78
152145378275,-0.21976928,-1.0231202,9.833513,-0.0054748533,0.074978635,-0.0016342163,77.66068279,12.84341945,5.78
152145378297,-0.0813797,-0.90508115,9.715956,0.01828308,0.04350128,-0.07908173,77.66068279,12.84341945,5.78
152145378319,-0.07790832,-0.82714844,10.405008,0.0051757814,-0.032403566,-0.10726013,77.66068279,12.84341945,5.78
152145378341,-0.40316468,-0.91920775,10.125364,0.078948975,-0.05083313,-0.062626645,77.66062878,12.84342725,5.83
152145378363,-0.38808137,-1.0433487,8.786287,-0.06449127,-0.059729002,0.0036956787,77.66062878,12.84342725,5.83
152145378385,-0.4383606,-0.13977203,9.17439,-0.19323273,-0.027345276,0.021749878,77.66062878,12.84342725,5.83
152145378407,-0.3220047,-0.28617555,9.904742,0.03756561,-0.015571594,0.005932617,77.66062878,12.84342725,5.83
152145378429,-0.41022795,-0.4896881,9.8503895,-0.061402895,-8.7127683E-4,0.034216307,77.66062878,12.84342725,5.83
152145378451,-0.20875244,-0.2926468,9.828245,0.11255951,0.06491394,0.034109496,77.66057863,12.84343399,5.39
152145378473,-0.0745575,-0.50202024,10.480784,0.019561768,-0.00821991,-0.06321106,77.66057863,12.84343399,5.39
152145378495,-0.46984404,-0.153302,9.61468,0.021583557,-0.047158815,-0.03087921,77.66057863,12.84343399,5.39
152145378517,-0.58763885,-0.5752808,10.220177,0.005496216,-0.014877319,0.0460968,77.66057863,12.84343399,5.39
152145378539,-0.18265685,-0.9532089,9.651793,0.008161927,0.03402405,0.045773316,77.6605238,12.84344553,5.76
152145378561,-0.17008667,-0.94542694,9.974173,-0.011122132,0.005206299,-0.02752533,77.6605238,12.84344553,5.76
152145378583,-0.21761322,-0.72946775,9.817591,0.021585083,-1.235962E-4,-0.006536865,77.6605238,12.84344553,5.76
152145378605,-0.16589813,-1.024794,9.685672,0.01556549,-2.8533937E-4,-0.011544799,77.6605238,12.84344553,5.76
152145378627,-0.13848571,-0.9281906,9.771622,-0.056767274,-0.02606659,-0.04313202,77.6605238,12.84344553,5.76
152145378649,-0.22192231,-0.82990724,9.627249,0.021427918,-0.04550781,-0.021453857,77.66047878,12.84344967,4.9
152145378671,-0.38700256,-0.8677322,9.935985,-0.004460144,-0.051153563,0.028198242,77.66047878,12.84344967,4.9
152145378693,-0.2948242,-0.7568817,9.845125,-4.6539307E-4,-0.012802124,0.08838196,77.66047878,12.84344967,4.9
152145378716,-0.22515564,-0.9364502,10.001585,0.017965699,0.007868958,0.059994508,77.66047878,12.84344967,4.9
152145378737,-0.29183197,-1.1261902,9.869662,0.028990174,0.019960022,0.06335144,77.66047878,12.84344967,4.9
152145378760,-0.04499054,-1.1342132,9.959089,0.038259886,0.038761903,0.07693176,77.66043681,12.84345299,4.37
152145378782,0.11973419,-1.2516495,9.827766,-0.0047821044,-0.014134216,-0.046272278,77.66043681,12.84345299,4.37
152145378804,-0.15931396,-1.3373566,9.720027,-0.014691162,-0.07901001,-0.016340638,77.66043681,12.84345299,4.37
152145378826,-0.4778641,-1.2551178,9.733075,0.0037963868,-0.09823914,0.06660309,77.66043681,12.84345299,4.37
152145378848,-0.85255736,-1.2486541,9.935863,0.016151428,-0.039331056,0.2597824,77.6604056,12.84345889,3.63
152145378870,-0.19450836,-1.4296554,9.610252,0.025103759,0.00723114,0.29520875,77.6604056,12.84345889,3.63
152145378892,-0.17224427,-1.2423065,9.789461,0.017433167,-0.0067810058,0.24614868,77.6604056,12.84345889,3.63
152145378914,-0.35875243,-0.8382858,9.827051,0.041189574,-0.016532898,0.25461882,77.6604056,12.84345889,3.63
152145378936,-0.33864135,-0.75544584,10.16044,0.06238556,-0.015681457,0.31901398,77.6604056,12.84345889,3.63
152145378958,-0.009434509,-0.606163,9.718709,0.011836243,-0.049711607,0.27736205,77.66038602,12.84345556,2.49
152145378980,-0.58284914,-0.2824661,9.916353,0.016368102,-0.07821045,0.36290282,77.66038602,12.84345556,2.49
152145379002,-0.6577881,-0.35752565,9.5332775,-0.047181703,-0.057173155,0.52956235,77.66038602,12.84345556,2.49
152145379024,-0.61313784,0.022434998,9.8530245,0.06329346,5.187988E-4,0.6544632,77.66038602,12.84345556,2.49
152145379046,-0.31864625,-0.27384645,10.174089,-0.026412964,0.028482055,0.65920866,77.66037088,12.84344308,1.8
152145379068,-0.053851318,0.6427704,9.008947,0.10063019,0.040626526,0.5819214,77.66037088,12.84344308,1.8
152145379090,0.18210296,0.035600282,10.3513775,0.0036346435,0.009411621,0.39885408,77.66037088,12.84344308,1.8
152145379112,-0.36796722,0.35307312,9.548363,-0.06577148,-0.0032669068,0.4047165,77.66037088,12.84344308,1.8
152145379102,-0.22419433,0.19577332,9.984945,0.048965454,0.028588867,0.39555055,77.66037088,12.84344308,1.8
152145379124,0.005050659,0.37318724,9.9106045,0.08374634,0.017562866,0.3340332,77.66036806,12.84343258,1.61
152145379146,-0.16924897,0.024713134,9.833754,0.037887573,-0.0077957152,0.27949372,77.66036806,12.84343258,1.61
152145379168,-0.44135284,0.020758057,9.871462,-3.6010743E-4,0.01708374,0.3302536,77.66036806,12.84343258,1.61
152145379190,-0.059832763,0.13304901,9.60403,0.037512206,0.03812561,0.32013243,77.66036806,12.84343258,1.61
152145379212,-0.21246186,-0.020544434,10.048033,-0.021774292,0.036579896,0.2651108,77.66036266,12.84340476,2.97
152145379234,-0.20743866,0.22498322,9.507181,-0.003024292,0.063742064,0.23975983,77.66036266,12.84340476,2.97
152145379256,-0.013505554,-0.14564057,10.031395,0.009545898,0.07801819,0.20177917,77.66036266,12.84340476,2.97
152145379278,-0.039363097,0.037754823,9.574221,-0.020924378,0.046910096,0.11533813,77.66036266,12.84340476,2.97
152145379300,-0.11154938,0.05343628,9.833514,0.013859558,0.004246521,0.065216064,77.66036266,12.84340476,2.97
152145379322,-0.46385652,0.064328,9.893369,-0.030296326,-0.001348877,0.10921021,77.66036683,12.84337244,3.31
152145379344,-0.3526474,0.11090088,9.862363,0.002996826,0.032316588,0.13536224,77.66036683,12.84337244,3.31
152145379366,-0.23102112,0.07115326,9.964233,0.013809204,0.04232788,0.08886413,77.66036683,12.84337244,3.31
152145379389,-0.3052414,0.09665527,9.742651,0.0023544312,0.044940185,0.070805356,77.66036683,12.84337244,3.31
152145379410,-0.15643768,-0.1993927,10.077242,-0.005264282,0.043981932,0.04342804,77.6603748,12.84334059,4.25
152145379432,-0.37443084,-0.14109345,9.320795,-0.035838317,0.046647646,0.029846191,77.6603748,12.84334059,4.25
152145379455,-0.2151001,-0.23327026,9.760127,-0.042871095,0.050372314,0.0068908692,77.6603748,12.84334059,4.25
152145379476,-0.26333922,-0.21926117,9.303198,-0.020228576,0.060279846,-0.026939392,77.6603748,12.84334059,4.25
152145379499,-0.073121645,-0.12624817,10.537048,-0.006539917,0.035565186,-0.06534119,77.6603748,12.84334059,4.25
152145379520,-0.33361053,0.049246214,9.125906,0.14984588,-0.039381407,-0.11018982,77.66038008,12.84329866,4.46
152145379543,-0.2708847,-0.24416351,10.2763195,-0.09480133,-0.14185944,-0.090213016,77.66038008,12.84329866,4.46
152145379565,-0.8408249,0.05786743,9.274946,0.013008118,-0.089875795,0.059300233,77.66038008,12.84329866,4.46
152145379587,-0.74494016,-0.2982727,10.426915,0.10206757,0.010319519,0.14005128,77.66038008,12.84329866,4.46
152145379609,-0.4357254,-0.33262786,9.299128,-0.054638673,0.0844635,0.1445282,77.66038389,12.84325807,4.74
152145379631,-0.23150024,0.058584593,10.099627,-0.10481415,0.1297882,0.04380188,77.66038389,12.84325807,4.74
152145379653,-0.15189362,0.022317505,9.484198,0.09408112,0.13266602,-0.043611147,77.66038389,12.84325807,4.74
152145379675,0.14271545,-0.30413514,10.346471,-0.053894043,0.010795593,-0.17927246,77.66038389,12.84325807,4.74
152145379697,-0.27292022,-0.022457886,9.537349,0.055245973,-0.08774261,-0.16653594,77.66038389,12.84325807,4.74
152145379719,-0.5007294,-0.27420807,9.898755,0.032662965,-0.13909149,-0.058203124,77.66039084,12.84322303,4.08
152145379741,-0.70471495,-0.11798401,9.786104,-0.112695314,-0.13621521,0.024520874,77.66039084,12.84322303,4.08
152145379763,-0.8935013,0.021478271,9.649638,0.1408966,-0.00821991,0.15182038,77.66039084,12.84322303,4.08
152145379785,-0.41046754,-0.52512056,10.208086,-0.042704772,0.082704164,0.13717346,77.66039084,12.84322303,4.08
152145379807,-0.25915068,-0.48717195,8.999735,-0.09618378,0.11705933,0.0573349,77.6603904,12.84317691,4.53
152145379829,-0.22766724,-0.5747986,10.079039,0.011837768,0.13479462,-0.031568907,77.6603904,12.84317691,4.53
152145379851,0.13637237,-0.41450804,10.052699,0.038365174,0.0706131,-0.13522644,77.6603904,12.84317691,4.53
152145379873,-0.037927248,-0.59598845,9.918985,0.03415985,-0.07027741,-0.20643464,77.6603904,12.84317691,4.53
152145379895,-0.83340454,-0.40026245,9.642575,0.046995543,-0.12321778,-0.06310272,77.6603904,12.84317691,4.53
152145379917,-0.51664734,-0.5259598,9.904262,-0.003929138,-0.06670837,0.031765748,77.66039387,12.84313484,4.6
152145379939,-0.60822755,-0.42839813,9.412252,-0.068804935,-0.016851807,0.03288269,77.66039387,12.84313484,4.6
152145379961,-0.3490494,0.07594452,11.456423,0.2298462,0.030345153,0.028463745,77.66039387,12.84313484,4.6
152145379983,-0.34246978,-0.6761978,9.78982,0.2890213,0.012234497,-0.016227722,77.66039387,12.84313484,4.6
152145380005,-0.23892212,-0.6454315,8.842911,-0.4494812,-0.016853333,-0.008880615,77.66039387,12.84313484,4.6
152145380027,-0.19917603,0.2083435,8.364908,-0.26593322,-0.0125900265,-0.027841186,77.66040064,12.84309507,3.9
152145380049,-0.24406739,-0.02987976,10.12381,0.10430451,-0.05078125,-0.049362183,77.66040064,12.84309507,3.9
152145380071,-0.71812284,-0.21854249,10.399742,0.046621703,-0.059674073,0.024784852,77.66040064,12.84309507,3.9
152145380094,-0.38819733,-0.24595337,9.496531,-0.005686951,0.0039245607,0.059783936,77.66040064,12.84309507,3.9
152145380115,-0.36880645,-0.13079529,9.627729,0.041400146,0.03386078,0.081251524,77.66039767,12.8430554,4.8
152145380137,-0.29590455,-0.1376175,10.113993,0.02355957,0.040252686,0.045454405,77.66039767,12.8430554,4.8
152145380159,-0.14327088,-0.0059402464,9.494492,-0.02236023,-0.007371521,-0.0174057,77.66039767,12.8430554,4.8
152145380182,-0.5061172,-0.10924683,9.977043,0.015196228,-0.010404969,0.0214859,77.66039767,12.8430554,4.8
152145380204,-0.49139252,-0.025927734,9.88463,-0.0022262572,0.040145874,0.05738678,77.66039767,12.8430554,4.8
152145380226,-0.25508118,-0.13749847,9.823336,-0.018687438,0.0708252,0.028196717,77.66040518,12.84301108,4.69
152145380248,-0.14027862,-0.10469971,10.052945,0.08688965,0.04621582,-0.052449036,77.66040518,12.84301108,4.69
152145380270,0.049702454,-0.81326294,10.180789,0.0075775147,-0.028779602,-0.08712311,77.66040518,12.84301108,4.69
152145380292,-0.44901276,-0.51171416,9.658258,0.01929779,-0.11182251,-0.06523438,77.66040518,12.84301108,4.69
152145380314,-0.8462097,-0.704689,10.02876,0.0105575565,-0.0915802,0.058184814,77.66041077,12.84296114,5.52
152145380336,-0.9016388,-0.6429199,9.5746975,0.00912323,0.040249635,0.18340607,77.66041077,12.84296114,5.52
152145380358,-0.013865662,-0.92375946,9.410095,-0.059539795,0.18422547,0.12305756,77.66041077,12.84296114,5.52
152145380380,0.22124633,-0.4960312,9.600438,-0.056181334,0.120947264,-0.12131958,77.66041077,12.84296114,5.52
152145380422,0.025883485,-0.7747208,9.521431,-0.014474487,-0.023402404,-0.16563568,77.66041077,12.84296114,5.52
152145380444,-0.47510833,-0.29443663,10.115906,-0.08585205,-0.09610901,-0.12877807,77.66040746,12.84291916,5.05
152145380466,-0.45894775,-0.27396393,10.291044,0.24822235,-0.05696106,-0.0018997192,77.66040746,12.84291916,5.05
152145380488,-0.87637633,-0.81338346,9.223946,-0.055970766,-0.03655853,0.07480316,77.66040746,12.84291916,5.05
152145380510,-0.12315979,-0.2976715,9.251123,-0.17767791,0.07178497,0.080021665,77.66040746,12.84291916,5.05
152145380532,-0.20647582,-0.5121902,9.839617,9.7045896E-4,0.050849915,-0.067790225,77.66041687,12.84286797,5.08
152145380554,0.040963747,-0.18705902,10.1410475,0.027445983,0.0031799315,-0.080256656,77.66041687,12.84286797,5.08
152145380576,-0.07288208,-0.82906497,9.785032,0.040223695,-0.045448303,-0.1043808,77.66041687,12.84286797,5.08
152145380598,-0.48791963,-0.16359863,10.569011,0.010986328,-0.077732846,-0.03881073,77.66041687,12.84286797,5.08
152145380620,-0.5299393,-0.1266037,9.313133,0.25088653,-0.044654846,0.022494506,77.66041687,12.84286797,5.08
152145380642,-0.41118622,-0.15198517,10.260878,-0.17842254,-0.11011505,0.025582885,77.66042359,12.84281904,5.18
152145380664,-0.50024873,-0.18837738,8.887085,0.023876954,-0.0048095705,0.119917296,77.66042359,12.84281904,5.18
152145380686,-0.36126557,-0.4404846,10.422725,3.845215E-4,0.050480653,0.107185364,77.66042359,12.84281904,5.18
152145380708,0.021809388,-1.0833328,9.492577,-0.042123415,0.079559326,0.0509964,77.66042359,12.84281904,5.18
152145380730,-0.17368011,-0.98157805,9.815794,-0.06486664,0.02017212,-0.026512146,77.66043134,12.8427658,5.17
152145380752,-0.39981383,-0.845105,9.235318,0.06563568,0.009251404,0.013122559,77.66043134,12.8427658,5.17
152145380774,-0.33852082,-0.7773529,10.894386,-0.009521484,0.0074417116,0.019619752,77.66043134,12.8427658,5.17
152145380796,-0.48887786,-0.23015442,10.877144,0.364122,0.07194519,0.048706055,77.66043134,12.8427658,5.17
152145380819,-0.32739106,-0.99378663,9.008232,0.040652465,0.057351686,0.00901947,77.66043134,12.8427658,5.17
152145380840,-0.1540451,-0.75233305,7.74565,-0.7820023,0.037698366,-0.03663025,77.66043712,12.84272112,4.66
152145380863,0.30121613,0.6354721,11.058504,0.09551392,0.02374115,-0.1498703,77.66043712,12.84272112,4.66
152145380885,-0.56321716,-0.53816986,11.299602,0.5044693,-0.0786911,-0.1604126,77.66043712,12.84272112,4.66
152145380907,-0.5271851,0.04134674,8.957115,-0.1885437,-0.121990964,0.026223755,77.66043712,12.84272112,4.66
152145380929,-0.3856842,-0.12875977,9.2893095,0.010079956,0.009942627,0.03863678,77.66044529,12.84267391,4.53
152145380951,-0.27974397,0.08480225,11.261892,-0.0033447265,0.021292115,0.04167328,77.66044529,12.84267391,4.53
152145380973,-0.47810364,-0.3770401,8.95005,0.11878967,0.062942505,0.038478088,77.66044529,12.84267391,4.53
152145380995,-0.20911407,0.28759003,10.203296,-0.108486935,0.022305299,-0.034074403,77.66044529,12.84267391,4.53
152145381017,-0.105204776,-0.19831237,9.437988,0.10574188,-0.03815918,-0.06699371,77.66044529,12.84267391,4.53
152145381039,-0.7560669,0.013212586,10.24735,-0.06593017,-0.05397644,0.009231567,77.66045346,12.84262826,5.23
152145381061,-0.35779113,0.0071121217,9.477376,0.04635315,0.044888306,0.07309876,77.66045346,12.84262826,5.23
152145381083,-0.16985016,-0.13223115,10.029836,-0.06880798,0.0088241575,-0.028373718,77.66045346,12.84262826,5.23
152145381105,-0.645459,0.16105804,9.684591,0.031333923,0.022781372,0.011099244,77.66045346,12.84262826,5.23
152145381127,-0.27316132,-0.16993865,10.06048,-0.005102539,0.072532654,0.023667907,77.66045346,12.84262826,5.23
152145381149,0.07795258,0.054396056,9.652273,0.012959289,0.030078124,-0.09974823,77.66045432,12.84257733,5.35
152145381171,-0.31026918,0.004837036,9.983869,0.01934967,-0.09925232,-0.13437042,77.66045432,12.84257733,5.35
152145381193,-0.77893674,-0.07237549,9.68208,0.0024612427,-0.09317932,0.018818665,77.66045432,12.84257733,5.35
152145381215,-0.55447996,-0.26834106,9.548721,-0.037539672,0.02960205,0.10910187,77.66045432,12.84257733,5.35
152145381237,0.022047425,0.1164093,9.821422,0.0029953003,0.06188049,-0.013244629,77.66045297,12.8425226,5.77
152145381259,0.038571168,-0.15461883,10.145475,0.007791138,-0.016851807,-0.07902984,77.66045297,12.8425226,5.77
152145381281,-0.3439087,-0.087818906,9.498326,0.07629089,-0.067185976,-0.03742981,77.66045297,12.8425226,5.77
152145381303,-0.27615052,-0.17808075,10.069102,-0.058528136,-0.13126068,-0.015007019,77.66045297,12.8425226,5.77
152145381325,-0.6861588,2.89917E-4,9.289789,0.058659364,-0.108680725,0.080393985,77.66045297,12.8425226,5.77
152145381347,-0.82286835,-0.18035431,9.863678,-0.037489317,0.009570313,0.19134064,77.66045492,12.84247057,5.3
152145381369,-0.39287108,-0.16754608,9.686389,-0.019322205,0.19961853,0.18686828,77.66045492,12.84247057,5.3
152145381391,0.39518738,-0.1686203,10.093282,-0.00393219,0.19311981,-0.03263397,77.66045492,12.84247057,5.3
152145381414,0.0066101076,-0.020661926,9.893248,-0.016979981,0.048188783,-0.13596955,77.66045492,12.84247057,5.3
152145381435,-0.3223587,-0.14013366,9.956096,0.010716247,-0.054617308,-0.11546326,77.66046569,12.84241948,5.99
152145381457,-0.6623367,-0.05322113,9.804781,0.07570038,-0.075602725,-0.01782837,77.66046569,12.84241948,5.99
152145381479,-0.63204956,-0.25194246,9.825972,-0.076049805,0.011380005,0.067718506,77.66046569,12.84241948,5.99
152145381501,-0.19498749,0.020280456,9.73499,0.050933838,0.06560974,-0.003604126,77.66046569,12.84241948,5.99
152145381524,-0.36449584,-0.33920747,9.8207035,-0.045954894,0.0146835325,-0.03695221,77.66046569,12.84241948,5.99
152145381545,-0.3263092,0.13807221,9.621626,0.051042177,0.040895082,-0.03401947,77.66047221,12.84236685,5.21
152145381616,-0.2183319,-0.35573426,10.192403,-0.07482605,-0.014028931,-0.0821167,77.66047221,12.84236685,5.21
152145381638,-0.58919525,0.10635223,9.135243,0.070962526,-0.020903016,-0.047337342,77.66047221,12.84236685,5.21
152145381659,-0.28668824,-0.087220766,10.94562,-0.0071792603,-0.04508362,-0.036315918,77.66047221,12.84236685,5.21
152145381681,-0.5185669,-0.18813324,9.429133,0.011730957,-0.026655579,-0.004776001,77.66046742,12.84230306,6.58
152145381703,-0.612059,-0.08865814,9.778684,-0.033335876,-0.005770874,0.01557312,77.66046742,12.84230306,6.58
152145381726,-0.44685668,0.026864624,9.811847,0.033143617,0.049147032,0.01802368,77.66046742,12.84230306,6.58
152145381748,-0.37742767,0.034165956,10.318578,0.032717895,0.045046996,-0.032795716,77.66046742,12.84230306,6.58
152145381770,-0.5225159,-0.13845673,9.621508,-0.05948639,0.045420837,-0.033061218,77.66046742,12.84230306,6.58
152145381792,-0.32068634,0.1059906,9.903662,0.029629517,0.07237091,-0.0375885,77.6604627,12.84223709,6.73
152145381814,-0.34366608,-0.33538207,9.753904,-0.056610107,0.0090408325,-0.11184082,77.6604627,12.84223709,6.73
152145381836,-0.41441804,0.14609376,9.4718685,0.034687806,-0.02414856,-0.088934325,77.6604627,12.84223709,6.73
152145381858,-0.67191315,-0.19663544,10.602651,0.07815246,-0.025160218,-0.04446106,77.6604627,12.84223709,6.73
152145381880,-0.538797,-0.13857727,9.702428,9.185791E-4,0.02682953,-0.01649933,77.66046168,12.84217997,6.67
152145381902,-0.4584717,-0.25792998,9.754024,-3.967285E-5,0.0708252,-0.03487549,77.66046168,12.84217997,6.67
152145381924,-0.30057526,-0.2157898,9.778447,-0.02789917,0.07024231,-0.08691101,77.66046168,12.84217997,6.67
152145381946,-0.26849213,-0.17975464,9.910965,-0.0022232055,0.052612305,-0.11513977,77.66046168,12.84217997,6.67
152145381968,-0.29326934,-0.2716919,10.115072,0.015086365,-0.0057174684,-0.14299926,77.66046168,12.84217997,6.67
152145381990,-0.4907898,-0.17819977,9.54908,0.0498703,-0.04481659,-0.13069764,77.66045829,12.8421201,7.15
152145382012,-0.47259673,-0.16694641,10.068144,-0.03317108,-0.04651947,-0.08989258,77.66045829,12.8421201,7.15
152145382034,-0.4930664,-0.18035431,9.702072,0.03666382,-0.03053894,-0.080682375,77.66045829,12.8421201,7.15
152145382056,-0.35923156,-0.27360994,10.047071,0.019985963,-0.034960937,-0.07652588,77.66045829,12.8421201,7.15
152145382078,-0.29901734,-1.0870438,9.574577,-4.119873E-5,-0.059729002,-0.08685913,77.66044754,12.84205843,6.76
152145382100,-0.45152742,-0.78693086,9.687465,-0.03583374,-0.08033905,-0.049842834,77.66044754,12.84205843,6.76
152145382122,-0.4138214,-1.062265,9.52442,0.0063552856,-0.07709503,-0.031466674,77.66044754,12.84205843,6.76
152145382144,-0.67191315,-0.93692476,9.716794,-0.0019577027,-0.027664185,0.036346436,77.66044754,12.84205843,6.76
152145382167,-0.3883194,-1.1360061,9.945086,0.00970459,0.041799925,0.031925965,77.66044754,12.84205843,6.76
152145382188,-0.24754028,-0.9639816,9.564642,-0.0029174804,0.074769594,0.013760376,77.66043289,12.8420013,6.04
152145382210,-0.20348358,-1.05616,9.895044,-0.007820129,0.07402191,-0.055166624,77.66043289,12.8420013,6.04
152145382232,0.050305177,-0.9330963,9.639585,-0.020819092,0.023156738,-0.11785736,77.66043289,12.8420013,6.04
152145382254,-0.23305817,-0.81649625,10.070658,0.08448944,-0.041085817,-0.12137298,77.66043289,12.8420013,6.04
152145382276,-0.59841156,-0.8899994,9.8841505,-0.01341095,-0.06127472,-0.053729247,77.66041919,12.84194714,5.92
152145382298,-0.40735322,-0.7037323,9.460852,0.031816103,-0.021965027,-0.0055770874,77.66041919,12.84194714,5.92
152145382320,-0.3473816,-0.90915525,9.730322,-0.023797607,-0.008277893,-0.03093567,77.66041919,12.84194714,5.92
152145382343,-0.46493682,-0.28845063,9.664241,0.026856994,-0.0046524047,-0.017987061,77.66041919,12.84194714,5.92
152145382365,-0.4569153,-0.30856627,10.193598,0.052212525,0.0013717652,-0.016177367,77.66041919,12.84194714,5.92
152145382387,-0.18828583,-0.19017334,9.823099,-0.04185486,0.0036605834,-0.034980774,77.66040034,12.84190102,5.48
152145382409,-0.27231598,-0.19232483,9.76001,-0.010006714,-0.052378844,-0.08973084,77.66040034,12.84190102,5.48
152145382431,-0.7871933,-0.16335449,9.526695,-0.033758543,-0.021858215,0.029473877,77.66040034,12.84190102,5.48
152145382453,-0.31529388,-0.04951172,9.904979,0.028085327,0.05079956,0.03922119,77.66040034,12.84190102,5.48
152145382475,-0.18242034,-0.03263092,10.303612,0.04875183,0.0016891479,-0.06629944,77.66040034,12.84190102,5.48
152145382497,-0.43057862,-0.25194246,9.670346,-0.010643005,-0.03384552,-0.038438417,77.66038292,12.84185322,5.3
152145382519,-0.04773865,-0.5418793,9.657301,8.6364744E-4,-0.095523074,-0.06539307,77.66038292,12.84185322,5.3
152145382541,-0.55579835,-0.6079605,9.672383,-0.008512879,-0.07214203,0.027662659,77.66038292,12.84185322,5.3
152145382563,-0.67729795,-0.065553285,9.116209,-0.1203125,0.007383728,0.09983673,77.66038292,12.84185322,5.3
152145382585,-0.21509552,0.012142944,9.40136,0.077459715,0.1282959,0.09674835,77.66036711,12.84180815,5.3
152145382607,-0.0862854,-0.9014908,10.216942,-0.04712677,0.12467651,-0.008560181,77.66036711,12.84180815,5.3
152145382629,0.29702607,-0.89634705,9.744446,0.039111327,0.017774964,-0.14721069,77.66036711,12.84180815,5.3
152145382651,-0.18720703,-0.86701506,10.058809,0.014982605,-0.085775755,-0.13782959,77.66036711,12.84180815,5.3
152145382673,-0.50108796,-0.8636627,9.482397,0.051948547,-0.12103577,-0.061239623,77.66036711,12.84180815,5.3
152145382695,-0.66808164,-1.0970978,9.947477,-0.056500245,-0.078689575,0.05823822,77.66035405,12.84177084,4.7
152145382717,-0.27232057,-0.9830139,9.458221,0.014500427,-0.014398193,0.081193544,77.66035405,12.84177084,4.7
152145382739,-0.35887298,-1.1015289,9.991885,-0.0053710938,0.04345093,0.112457275,77.66035405,12.84177084,4.7
152145382761,0.012712097,-1.1241516,9.71907,-8.972168E-4,0.046432495,0.025482178,77.66035405,12.84177084,4.7
152145382783,-0.27256012,-1.2942642,9.630724,-0.024917603,0.040145874,0.0107803345,77.66034907,12.84173297,3.44
152145382805,-0.19522552,-1.1868851,9.728885,-0.01565094,0.050959777,0.00859375,77.66034907,12.84173297,3.44
152145382827,-0.022003174,-1.27379,9.8019085,-0.0047821044,0.03822937,-0.062091064,77.66034907,12.84173297,3.44
152145382849,-0.018772889,-1.2709198,9.94137,0.0154067995,-0.019729614,-0.13314056,77.66034907,12.84173297,3.44
152145382872,-0.44326782,-1.2510452,9.699077,-1.4801025E-4,5.645752E-4,-0.027627563,77.66034907,12.84173297,3.44
152145382893,0.20987853,-1.4093018,9.688303,0.0060272217,-0.04721222,-0.114234924,77.6603422,12.84169579,3.67
152145382915,-0.6599442,-1.2794158,9.803942,0.017912293,-0.016638184,-0.014204407,77.6603422,12.84169579,3.67
152145382937,-0.20516053,-1.3493286,9.736905,-0.007501221,0.013140869,0.05717621,77.6603422,12.84169579,3.67
152145382959,-0.3595932,-1.1739502,9.797002,-0.0077682496,0.026243592,-0.019372558,77.6603422,12.84169579,3.67
152145382981,-0.24155426,-0.89096373,9.737384,-0.0051589967,0.085049435,0.033363342,77.66033163,12.84167223,2.87
152145383004,0.697937,-0.43797302,9.920779,0.036714174,0.029331971,-0.1966339,77.66033163,12.84167223,2.87
152145383026,-0.17726898,-0.017312622,9.90007,0.059085082,-0.056108095,-0.3636139,77.66033163,12.84167223,2.87
152145383048,-0.33708343,0.087078854,9.697641,0.016737366,-0.0740036,-0.17223969,77.66033163,12.84167223,2.87
152145383070,-0.08916016,0.116766356,9.746721,0.018496703,-0.12172699,-0.18438569,77.66033163,12.84167223,2.87
152145383092,-1.0306854,0.11018219,9.628207,-8.9569093E-4,-0.0838028,0.047209166,77.66033088,12.84166757,1.24
152145383114,-0.36868745,0.2927429,9.728168,-0.011819458,-0.04194031,0.21792145,77.66033088,12.84166757,1.24
152145383136,-0.61792755,0.21157837,9.827047,-0.01954193,-0.0021453858,0.2166977,77.66033088,12.84166757,1.24
152145383158,-0.17966461,0.2413849,9.76743,-0.0101623535,0.04520569,0.25472412,77.66033088,12.84166757,1.24
152145383180,0.12858887,0.5215042,10.058687,0.002996826,-0.00630188,0.044174194,77.66032699,12.84165698,1.24
152145383202,-0.55483705,0.61727446,9.859607,0.016473388,-0.02223053,0.08471222,77.66032699,12.84165698,1.24
152145383224,0.10465088,0.46129304,9.86308,0.013755798,-0.08013153,0.071661375,77.66032699,12.84165698,1.24
152145383246,-0.6242706,0.40885773,9.796043,0.013117981,-0.11602783,0.09573364,77.66032699,12.84165698,1.24
152145383268,-1.0069809,0.4377075,9.852066,0.010612488,-0.027928162,0.32567444,77.66032699,12.84165698,1.24
152145383290,-0.3853302,0.34361726,9.809568,-0.011172486,0.096983336,0.34346312,77.66031244,12.84163839,2.18
152145383312,-0.16553803,0.39341736,9.700154,-0.007659912,0.16574097,0.22926942,77.66031244,12.84163839,2.18
152145383334,0.18401794,0.3422989,9.971179,-0.024176026,0.1721878,0.064524844,77.66031244,12.84163839,2.18
152145383356,0.20832062,0.3429001,9.799875,-0.01953888,0.081904605,-0.09948425,77.66031244,12.84163839,2.18
152145383378,-0.3753952,0.41352844,9.875175,0.036128234,-0.010298157,-0.118974306,77.66029612,12.84159058,3.46
152145383400,-0.6490494,0.32757416,9.920779,0.012850952,-0.022180175,-0.01947937,77.66029612,12.84159058,3.46
152145383422,-0.4717575,0.26676482,9.666998,-0.013465881,-0.007209778,0.012059021,77.66029612,12.84159058,3.46
152145383444,-0.4412323,0.15267944,9.840933,-0.00834961,0.015808105,0.010832215,77.66029612,12.84159058,3.46
152145383466,-0.43285218,0.2607773,9.857931,-0.001638794,0.043663025,0.0066223145,77.66029612,12.84159058,3.46
152145383488,-0.24095611,0.23839264,9.791971,-0.003985596,0.036576845,-0.04147949,77.6602784,12.84154433,4.14
152145383510,-0.33157653,0.22354583,9.916471,0.007043457,0.0057357787,-0.07513733,77.6602784,12.84154433,4.14
152145383532,-0.40400085,0.13400269,9.847641,0.029364014,-0.0371994,-0.069813535,77.6602784,12.84154433,4.14
152145383554,-0.63743746,0.08839569,9.81496,0.0034744262,-0.03490448,-0.0027008057,77.6602784,12.84154433,4.14
152145383577,-0.3929886,-0.044721983,9.831718,-0.028222656,-0.002041626,0.022071838,77.6602784,12.84154433,4.14
152145383598,-0.32319945,0.12430878,9.593971,0.013648987,0.0022216798,-0.018679809,77.66028966,12.84149046,4.86
152145383620,-0.4943878,-0.01862793,9.869786,-0.013038635,0.021983337,0.0056121824,77.66028966,12.84149046,4.86
152145383642,-0.24167481,0.057389833,9.669868,-0.01826477,0.05927124,-0.003656006,77.66028966,12.84149046,4.86
152145383664,-0.1436325,0.04410553,9.907852,0.028565979,-7.644653E-4,-0.106089786,77.66028966,12.84149046,4.86
152145383686,-0.2298233,0.09868927,9.849434,0.0058700563,-0.060047913,-0.07231903,77.66028631,12.84144566,4.61
152145383708,-0.48624116,-0.056573488,9.783232,-0.0015899658,-0.09850311,-0.056019593,77.66028631,12.84144566,4.61
152145383731,-0.80383605,-0.03012085,9.756061,0.0035812377,-0.038742065,0.0721405,77.66028631,12.84144566,4.61
152145383753,-0.5698029,-0.13738099,9.820702,-0.0036605834,0.087495424,0.1056427,77.66028631,12.84144566,4.61
152145383775,-0.08365631,-0.09021606,9.802986,-0.0142120365,0.107737735,-0.01010437,77.66028631,12.84144566,4.61
152145383820,-0.106637575,-0.13103485,9.819864,0.017697144,0.048617553,-0.08126678,77.66029006,12.84140324,4.61
152145383843,0.06622162,-0.17078248,9.907494,0.0034240722,-0.052589417,-0.12584686,77.66029006,12.84140324,4.61
152145383865,-0.71752167,-0.07991791,9.6567,0.023875427,-0.13430023,-0.051063538,77.66029006,12.84140324,4.61
152145383887,-0.8427399,-0.20501557,9.850031,-0.02076416,-0.021858215,0.10670777,77.66029006,12.84140324,4.61
152145383909,-0.031939697,-0.16418914,9.768507,0.005340576,0.07471313,0.037834167,77.66028532,12.84135698,4.6
152145383931,-0.29159698,-0.22763672,9.991175,0.0012908935,0.0136734005,-0.047125243,77.66028532,12.84135698,4.6
152145383953,-0.21437684,-0.23817596,9.638265,-0.023530578,-0.0057723997,-0.034500122,77.66028532,12.84135698,4.6
152145383975,-0.38365477,-0.21004638,9.551715,-0.0053131105,-0.0026260377,-0.008668518,77.66028532,12.84135698,4.6
152145383997,-0.3237961,-0.18394622,9.762764,-0.01405487,-0.011364746,-0.016870117,77.66028532,12.84135698,4.6
152145384019,-0.39310914,-0.055854797,9.932154,0.027552795,-0.016052246,-0.010269165,77.66027911,12.8413124,4.72
152145384041,-0.43405,-0.22021942,9.827768,-0.005847168,-0.014881897,9.2315674E-4,77.66027911,12.8413124,4.72
152145384063,-0.31074828,-0.11918335,9.807898,-0.01101532,-0.0048660277,0.0047058105,77.66027911,12.8413124,4.72
152145384085,-0.52933806,-0.24822846,9.823575,0.010986328,0.0022735596,0.0148269655,77.66027911,12.8413124,4.72
152145384107,-0.46385804,-0.117982484,9.83016,0.00209198,0.053199768,0.02974243,77.66023498,12.84124827,5.5
152145384129,0.09411774,-0.20010681,9.994761,0.0056030275,0.046110533,-0.04786835,77.66023498,12.84124827,5.5
152145384151,-0.17415313,-0.12995605,9.933588,0.016842652,-0.07576294,-0.099163815,77.66023498,12.84124827,5.5
152145384173,-0.6642517,-0.10996246,9.8452425,0.007255554,-0.09759827,0.016105652,77.66023498,12.84124827,5.5
152145384195,-0.4312973,-0.16515045,9.736664,-0.0043045045,-0.052433778,0.04662628,77.66023498,12.84124827,5.5
152145384217,-0.5411911,-0.115112305,9.917788,-0.010746765,-0.017330933,0.06542816,77.66021838,12.84120087,5.62
152145384239,-0.4081909,-0.20585021,9.861763,0.0027267456,0.04009247,0.06617431,77.66021838,12.84120087,5.62
152145384261,-0.28094023,-0.19771424,9.806337,-0.00861969,0.05772247,0.034428407,77.66021838,12.84120087,5.62
152145384283,-0.1764328,-0.18573761,9.907373,0.009066773,0.02166443,-0.020387268,77.66021838,12.84120087,5.62
152145384305,-0.43009645,-0.19902802,9.795802,-9.460449E-5,-1.7547607E-4,0.011578369,77.66019994,12.84114456,5.83
152145384327,-0.43907776,-0.27684325,9.736906,-0.002973938,0.016976928,0.024307251,77.66019994,12.84114456,5.83
152145384349,-0.20025177,-0.2901291,9.796164,0.0034194947,0.010905457,-0.0029159547,77.66019994,12.84114456,5.83
152145384371,-0.29386902,-0.2842621,9.835429,-0.01788788,-0.011204529,-0.010212707,77.66019994,12.84114456,5.83
152145384394,-0.26070863,-0.33382416,9.728407,0.028887939,-0.015948486,-0.002116394,77.66019994,12.84114456,5.83
152145384416,-0.44087067,-0.30138093,9.529688,-0.03269043,-0.037464906,0.0050231935,77.66017888,12.84107654,6.57
152145384437,-0.5731522,-0.36578673,9.666638,-0.0017471313,0.023527527,0.065271,77.66017888,12.84107654,6.57
152145384460,-0.06809387,-0.303775,9.796163,-0.0028121949,0.06235962,0.010029602,77.66017888,12.84107654,6.57
152145384482,-0.41597596,-0.3097641,9.64461,0.01737671,0.048776247,0.0020935058,77.66017888,12.84107654,6.57
152145384504,-0.2574768,-0.32927245,9.7071,-0.018154908,0.051278688,-0.02129059,77.66014434,12.84100881,6.01
152145384526,0.025878906,-0.29838562,9.642096,-0.006222534,0.03072052,-0.06299591,77.66014434,12.84100881,6.01
152145384548,-0.07120514,-0.2100418,10.191208,0.028190613,-0.11975555,-0.12755433,77.66014434,12.84100881,6.01
152145384570,-1.0433747,-0.28869325,9.837461,0.02004242,-0.12998505,0.046943665,77.66014434,12.84100881,6.01
152145384592,-0.6079849,-0.31395262,9.771625,-0.028060913,0.036683656,0.119543456,77.66014434,12.84100881,6.01
152145384614,-0.20755157,-0.5405655,9.829799,-0.008085633,0.114024356,0.029528808,77.66012329,12.84094542,7.2
152145384636,-0.07659149,-0.47185057,9.876249,-0.006436157,0.06875,-0.045262147,77.66012329,12.84094542,7.2
152145384658,-0.21533966,-0.60401154,9.683756,-0.0038253784,0.008876038,-0.056282043,77.66012329,12.84094542,7.2
152145384680,-0.13728485,-0.9438675,9.771261,-0.0019592284,-0.04934082,-0.06992187,77.66012329,12.84094542,7.2
152145384702,-0.2917145,-0.9988144,9.69058,-0.004408264,-0.10942078,-0.044195555,77.66010985,12.84088338,6.27
152145384724,-0.82861483,-0.9461441,9.646642,-0.0022781373,-0.08609466,0.046676636,77.66010985,12.84088338,6.27
152145384746,-0.51246035,-1.0936264,9.666639,-0.0073944093,0.053730775,0.110646054,77.66010985,12.84088338,6.27
152145384768,-0.14159545,-0.965419,9.8135195,-0.009521484,0.109867856,0.029048156,77.66010985,12.84088338,6.27
152145384790,0.025761414,-0.9673325,9.887259,0.015248108,0.07918854,-0.04962921,77.66010985,12.84088338,6.27
152145384812,-0.09503174,-0.789801,9.847757,-0.0010574341,-0.015679931,-0.089093015,77.6600897,12.84081552,5.1
152145384834,-0.5256287,-0.64782715,9.523224,0.012266541,-0.064416505,-0.04451294,77.6600897,12.84081552,5.1
152145384856,-0.57578886,-0.6405228,9.820463,-0.007710266,-0.018180847,0.03427124,77.6600897,12.84081552,5.1
152145384878,-0.08712463,-0.48717347,9.823337,0.01040039,0.0029663085,-0.002859497,77.6600897,12.84081552,5.1
152145384900,-0.45679474,-0.48358306,9.956696,0.0050765993,-0.034695435,-0.024694825,77.66002765,12.84075654,5.68
152145384922,-0.38269195,-0.4226486,9.740021,-0.0040374757,-0.002572632,0.029902648,77.66002765,12.84075654,5.68
152145384944,-0.27040252,-0.46945953,9.772339,-0.007496643,-0.010299683,-0.0081359865,77.66002765,12.84075654,5.68
152145384966,-0.43823853,-0.55253446,9.819387,0.0032592774,-0.01866455,0.011259461,77.66002765,12.84075654,5.68
152145384988,-0.20611724,-0.594072,9.740257,0.0043273927,0.0055236816,0.02457428,77.66002765,12.84075654,5.68
152145385010,-0.1860077,-0.41271362,9.822978,0.008857727,-0.018449401,-0.011703491,77.66002617,12.84070517,4.92
152145385032,-0.51700747,-0.4544937,9.696922,0.014233398,-0.04295044,0.009446716,77.66002617,12.84070517,4.92
152145385055,-0.49641722,-0.4269577,9.676814,-0.014108276,-0.008966064,0.06121979,77.66002617,12.84070517,4.92
152145385076,-0.2382019,-0.48466033,9.825371,-9.460449E-4,0.035298157,0.05472107,77.66002617,12.84070517,4.92
152145385099,-0.32152253,-0.43019104,9.856613,-0.004463196,0.03791046,0.013764953,77.66002026,12.84066101,4.92
152145385121,-0.4381195,-0.3672226,9.679446,-0.022947693,0.04701843,0.01999054,77.66002026,12.84066101,4.92
152145385143,-0.19282989,-0.50931853,9.821063,0.0040634153,0.056391906,-0.0037658692,77.66002026,12.84066101,4.92
152145385165,-0.1986969,-0.3814682,9.9715395,0.0086425785,0.008613586,-0.06288757,77.66002026,12.84066101,4.92
152145385187,-0.40268555,-0.4201355,9.841051,0.0036315918,-0.040397644,-0.038868714,77.66002026,12.84066101,4.92
152145385209,-0.49366608,-0.38829193,9.666395,-0.003237915,-0.01322937,0.015785217,77.66000402,12.84058341,5.62
152145385231,-0.23808289,-0.45975798,9.891211,-0.0035003661,-0.0012420655,-0.0066955565,77.66000402,12.84058341,5.62
152145385253,-0.25316468,-0.49016723,10.035464,0.0013412476,-0.02814331,-0.019374084,77.66000402,12.84058341,5.62
152145385275,-0.47618407,-0.6030548,9.495092,-0.0036087036,-0.019889832,0.018876648,77.66000402,12.84058341,5.62
152145385297,-0.34629974,-0.65285337,9.711766,0.015830994,0.011227417,0.021966552,77.66000402,12.84058341,5.62
152145385319,-0.18684539,-1.3049179,9.6983595,-0.10236206,1.953125E-4,-0.0021118163,77.65998804,12.84052159,6.26
152145385341,-0.29254913,-0.75652313,9.397049,0.03729706,-0.0013473511,0.0028930665,77.65998804,12.84052159,6.26
152145385363,-0.33983764,-1.1058365,10.138893,0.017056275,-3.90625E-4,0.0030517578,77.65998804,12.84052159,6.26
152145385385,-0.3142212,-0.97642976,9.480006,0.001397705,0.018736267,0.0148269655,77.65998804,12.84052159,6.26
152145385407,-0.26908875,-1.0771103,9.815193,-4.1503907E-4,0.015538025,-0.007868958,77.65997345,12.84046531,4.89
152145385429,-0.3380478,-1.0099503,9.620069,-0.0013214111,0.015168762,4.4403077E-4,77.65997345,12.84046531,4.89
152145385451,-0.19103698,-0.983136,9.830998,0.0059814453,0.015698243,-0.017402649,77.65997345,12.84046531,4.89
152145385473,-0.15045471,-1.0992553,9.643892,0.01375885,-0.0044403076,-0.035461426,77.65997345,12.84046531,4.89
152145385495,-0.20827332,-1.25392,9.738701,-0.015065002,-0.037251282,-0.04249115,77.65997345,12.84046531,4.89
152145385517,-0.42710418,-1.4264221,9.686391,-0.03956909,-0.058451843,-0.0018463135,77.65995742,12.84041016,5.56
152145385539,-0.45272216,-1.528775,9.505026,0.031651307,-0.01477356,0.049822997,77.65995742,12.84041016,5.56
152145385561,-0.31409913,-1.5868332,9.75678,0.021105956,0.025180053,0.062072754,77.65995742,12.84041016,5.56
152145385583,-0.14447021,-1.206514,9.914316,-0.018258667,0.012025451,-0.013780212,77.65995742,12.84041016,5.56
152145385605,-0.22036591,-0.8691681,11.023669,0.123852536,0.0027557374,-0.004138184,77.65995518,12.84035881,4.37
152145385627,-0.31505737,-0.9184906,9.439787,0.3743515,-0.015412902,-3.2043456E-5,77.65995518,12.84035881,4.37
152145385649,-0.13429412,-2.1728148,8.240651,-0.68782806,-0.1265213,-0.016818237,77.65995518,12.84035881,4.37
152145385671,-0.54250795,0.43435517,8.808316,-0.23211212,-0.04369507,0.08641358,77.65995518,12.84035881,4.37
152145385693,-0.49007568,0.065409854,10.923472,0.45520324,0.08105316,0.11703949,77.65995518,12.84035881,4.37
152145385715,-0.22994384,-0.25673372,10.252855,-0.07093658,0.06762848,0.058291625,77.65994486,12.84031966,4.34
152145385737,-0.17846832,-0.06435547,9.480847,0.0883255,0.1496048,0.022442628,77.65994486,12.84031966,4.34
152145385759,-0.022962952,0.027459716,10.386213,-0.043562315,0.090586856,-0.084942624,77.65994486,12.84031966,4.34
152145385781,-0.049298096,-0.037423708,9.622106,0.047528077,0.006536865,-0.16845855,77.65994486,12.84031966,4.34
152145385803,-0.40364227,-0.092848204,9.90905,9.170532E-4,-0.06611786,-0.10310364,77.65992831,12.84029119,4.21
152145385826,-0.6404297,-0.03933716,9.621388,-0.005583191,-0.05887909,-0.03173065,77.65992831,12.84029119,4.21
152145385848,-0.5354431,-0.12552795,9.814598,-0.026142884,-0.027023315,0.014402771,77.65992831,12.84029119,4.21
152145385870,-0.46445617,-0.26522827,9.550517,0.020095825,0.024699401,0.018292237,77.65992831,12.84029119,4.21
152145385892,-0.15165253,-0.17221221,9.800589,-0.0375412,0.03663025,-0.021611024,77.65992831,12.84029119,4.21
152145385914,-0.2780655,-0.10709381,9.572307,0.02137146,0.013458252,-0.07332764,77.65992626,12.84025196,4.17
152145385936,-0.20109406,-0.18310699,10.095436,-0.007662964,-0.0020431518,-0.05623474,77.65992626,12.84025196,4.17
152145385958,-0.15655975,-0.19244537,9.814718,0.037353516,-0.052433778,-0.09447632,77.65992626,12.84025196,4.17
152145385980,-0.53077394,-0.36291352,9.8336315,-0.009898377,-0.117198184,-0.032901,77.65992626,12.84025196,4.17
152145386002,-0.6586243,-0.22165374,9.75175,0.037353516,-0.066920474,0.06564178,77.65991373,12.84018878,5.25
152145386024,-0.55352175,-0.3179016,10.049588,0.0093307495,0.012449646,0.08726807,77.65991373,12.84018878,5.25
152145386046,-0.1724823,-0.25840607,9.495691,-0.010906982,0.058628846,0.046040345,77.65991373,12.84018878,5.25
152145386068,-0.15919343,-0.3400467,9.775691,-0.05570526,0.02102356,-0.017086793,77.65991373,12.84018878,5.25
152145386090,-0.2698059,-0.41678315,9.390706,0.020095825,-0.008914185,-0.017402649,77.65991373,12.84018878,5.25
152145386112,-0.42028198,-0.41510925,9.742055,-0.04936676,-0.01813202,0.02068634,77.65986181,12.84013919,5.38
152145386134,-0.28381348,-0.22931366,9.922694,0.023022462,0.0055770874,0.017601013,77.65986181,12.84013919,5.38
152145386156,-0.40627748,-0.37332916,10.107289,-0.0040908814,0.005899048,0.018286133,77.65986181,12.84013919,5.38
152145386178,-0.34737855,-0.39679107,9.782873,0.022329712,0.027096558,0.021913147,77.65986181,12.84013919,5.38
152145386200,-0.27495116,-0.37380677,9.980278,0.011146545,0.033435058,0.0061965943,77.65984132,12.84007788,6.04
152145386222,-0.36473542,-0.3900879,9.731999,0.004434204,0.006321716,-0.022515869,77.65984132,12.84007788,6.04
152145386244,-0.3637802,-0.39152375,9.361257,-0.026034545,-0.01631775,-0.0138900755,77.65984132,12.84007788,6.04
152145386266,-0.37323913,-0.30976257,9.704585,0.0035308837,-0.001083374,0.0021484375,77.65984132,12.84007788,6.04
152145386288,-0.37108153,-0.40182036,9.787663,0.021687318,-0.0027297973,1.2207031E-4,77.65984132,12.84007788,6.04
152145386310,-0.24742126,-0.4480316,9.827408,-0.052934267,-0.009823608,-0.0076522827,77.65982415,12.84002067,6.25
152145386332,-0.3264328,-0.4000229,9.828363,0.053491212,-0.021487426,-0.0072814943,77.65982415,12.84002067,6.25
152145386354,-0.39322814,-0.41630402,9.728884,-0.04116211,-0.03304596,0.0098724365,77.65982415,12.84002067,6.25
152145386376,-0.5032425,-0.4412033,9.796643,0.017112732,0.0034439086,0.03746643,77.65982415,12.84002067,6.25
152145386399,-0.38137665,-0.48298186,10.078917,0.013221741,0.023847962,0.02910309,77.6598073,12.83996291,6.15
152145386421,-0.33792114,-0.513031,9.720265,-0.016926575,0.033276368,0.012272644,77.6598073,12.83996291,6.15
152145386442,-0.2674118,-0.41223603,9.71931,-0.01719513,0.04004059,-0.0030715943,77.6598073,12.83996291,6.15
152145386464,-0.29841766,-0.5184204,9.888338,0.00800476,0.022198487,-0.018359374,77.6598073,12.83996291,6.15
152145386486,-0.33876342,-0.3849411,9.823215,-0.010905457,0.00499115,-0.02603302,77.6598073,12.83996291,6.15
152145386508,-0.39023438,-0.6407623,9.902945,-0.013786316,-0.0146133425,-0.016284179,77.65979105,12.83990245,6.61
152145386531,-0.35707244,-0.44108582,9.378255,0.01620636,-0.008113098,-0.01149292,77.65979105,12.83990245,6.61
152145386553,-0.42865905,-0.4013397,10.065511,-0.009577942,-0.016371155,-0.0074401856,77.65979105,12.83990245,6.61
152145386575,-0.4782242,-0.48202667,9.549082,0.034848023,-0.0068893433,0.0051315306,77.65979105,12.83990245,6.61
152145386597,-0.55950624,-0.34723204,9.8602085,-0.042173766,0.015113831,0.020263672,77.65979105,12.83990245,6.61
152145386619,-0.4547592,-0.52201235,9.818666,0.013439941,0.07631226,0.01738434,77.65976637,12.83984541,6.5
152145386641,-0.22299957,-0.39894563,9.83423,-0.012776184,0.07588653,-0.033433534,77.65976637,12.83984541,6.5
152145386663,-0.26345977,-0.42839354,10.079638,0.013278198,0.031407166,-0.07785797,77.65976637,12.83984541,6.5
152145386685,-0.3769501,-0.43737334,9.819267,0.010984803,-0.011419678,-0.068855286,77.65976637,12.83984541,6.5
152145386707,-0.56333923,-0.51901704,9.838663,-0.005369568,-0.01770172,-0.04030762,77.65973801,12.83975585,7.47
152145386729,-0.51114655,-0.52966917,9.83447,-0.003985596,0.0038208007,-0.023046875,77.65973801,12.83975585,7.47
152145386751,-0.390477,-0.61071473,9.910848,-0.0040893555,0.022200013,-0.03604736,77.65973801,12.83975585,7.47
152145386773,-0.3364853,-0.56295013,9.724818,0.0057662963,0.01889801,-0.052503966,77.65973801,12.83975585,7.47
152145386795,-0.50312346,-0.59431154,9.804064,0.0016082764,-0.017010499,-0.059803773,77.65973801,12.83975585,7.47
152145386817,-0.45093077,-0.6335785,9.688782,-0.00632782,-0.006462097,-0.026936341,77.65972159,12.83969025,7.47
152145386839,-0.35491943,-0.62675476,9.685552,0.019935608,0.018734742,-0.035725404,77.65972159,12.83969025,7.47
152145386861,-0.2166504,-0.6761978,9.824415,-0.0022277832,-0.04055481,-0.08323517,77.65972159,12.83969025,7.47
152145386883,-0.6002121,-0.61263275,9.772339,0.011569214,-0.07959747,-0.030561829,77.65972159,12.83969025,7.47
152145386905,-0.69968873,-0.5999405,9.869064,-0.01096344,-0.0066223145,0.03581085,77.65966823,12.83962025,7.09
152145386927,-0.5227539,-0.6983444,9.66448,-0.0021224977,0.07748566,0.025108337,77.65966823,12.83962025,7.09
152145386949,-0.40986937,-0.613945,9.723737,-0.008351135,0.09857635,-0.025180053,77.65966823,12.83962025,7.09
152145386971,-0.37096253,-0.64171904,9.868228,0.0043273927,0.08856659,-0.06411133,77.65966823,12.83962025,7.09
152145386993,-0.32200012,-0.67846835,9.735231,0.011251831,0.06427612,-0.095910646,77.65966823,12.83962025,7.09
152145387016,-0.202771,-0.59395295,10.102262,0.0069900514,0.022463989,-0.12579346,77.65960011,12.83952819,8.01
152145387038,-0.2487381,-0.6991806,9.903063,0.03378601,-0.035653688,-0.13554077,77.65960011,12.83952819,8.01
152145387059,-0.4383606,-0.49028474,9.971059,0.0311203,-0.112083435,-0.11082611,77.65960011,12.83952819,8.01
152145387081,-0.6418686,-0.736409,9.527649,-0.0029174804,-0.11171112,-0.037750244,77.65960011,12.83952819,8.01
152145387103,-0.66066134,-0.5490631,9.525617,-0.026358033,-0.02388153,0.017224122,77.65956878,12.83947056,7.25
152145387126,-0.27291718,-0.63190156,9.807177,0.019082641,0.026086425,-0.011012268,77.65956878,12.83947056,7.25
152145387148,-0.36365968,-0.5742035,9.769826,-0.00941925,0.0209198,-0.041371156,77.65956878,12.83947056,7.25
152145387169,-0.44350737,-0.6254425,9.559614,0.012959289,0.030079652,-0.024963379,77.65956878,12.83947056,7.25
152145387191,-0.27543488,-0.5212906,9.90103,-0.012400818,0.04978943,-0.044514466,77.65956878,12.83947056,7.25
152145387213,-0.36317903,-0.62304384,9.867508,0.016578674,0.020118713,-0.07327728,77.65952905,12.83941081,7.57
152145387236,-0.5561539,-0.55564725,9.913956,0.012265014,0.03317108,-0.04041443,77.65952905,12.83941081,7.57
152145387258,-0.2581955,-0.6647049,9.623299,-0.014158631,0.057400513,-0.06134491,77.65952905,12.83941081,7.57
152145387280,-0.3424713,-0.60401154,10.128595,0.038575746,0.011010742,-0.11316834,77.65952905,12.83941081,7.57
152145387302,-0.6231903,-1.1333725,10.08682,-0.003025818,-0.020788575,-0.068589784,77.65949616,12.83937066,7.27
152145387324,-0.25364685,-0.6645859,9.462412,-0.038661193,0.011222839,-0.07956085,77.65949616,12.83937066,7.27
152145387346,-0.45930785,-0.8556442,10.192401,0.06627502,-0.02254944,-0.086006165,77.65949616,12.83937066,7.27
152145387368,-0.5799759,-0.9960648,9.80981,-0.004888916,-0.02771759,-0.056710817,77.65949616,12.83937066,7.27
152145387390,-0.46781006,-0.91980743,9.836146,0.021641541,0.024540711,-0.032051086,77.65949616,12.83937066,7.27
152145387412,-0.4364441,-0.91681516,9.93,-0.028646851,0.04850769,-0.05479584,77.65945311,12.83932205,7.19
152145387434,-0.49186707,-1.0221603,9.687586,0.038363647,0.05154724,-0.080891415,77.65945311,12.83932205,7.19
152145387456,-0.38963622,-1.0057617,9.679926,-0.032107543,0.06917572,-0.076631166,77.65945311,12.83932205,7.19
152145387478,-0.31445616,-0.8536072,10.096159,0.057217408,0.090107724,-0.11918793,77.65945311,12.83932205,7.19
152145387500,-0.20707703,-1.014499,9.900072,-0.0010009765,0.064381406,-0.1583908,77.65941581,12.83927642,5.63
152145387522,-0.11657562,-0.9122635,9.725535,0.03687439,0.008451844,-0.19216004,77.65941581,12.83927642,5.63
152145387544,-0.38173828,-0.9570373,10.269498,0.010133361,-0.08769226,-0.18555756,77.65941581,12.83927642,5.63
152145387566,-0.61002505,-1.1259491,9.323906,0.017803956,-0.065802,-0.10598145,77.65941581,12.83927642,5.63
152145387588,-0.4512848,-1.0146179,9.539386,0.014076233,-0.01184082,-0.07306214,77.65941581,12.83927642,5.63
152145387610,-0.25088805,-0.996904,9.804541,0.023979187,-0.009660339,-0.12249146,77.65936053,12.83923823,6.91
152145387632,-0.34701997,-0.8878479,9.940893,0.043640137,-0.04881134,-0.119665526,77.65936053,12.83923823,6.91
152145387614,-0.5316132,-1.0870438,9.607859,-0.028164674,-0.07741241,-0.085632324,77.65936053,12.83923823,6.91
152145387636,-0.5440613,-0.8507355,9.442897,0.01737976,-0.010247802,-0.024061585,77.65936053,12.83923823,6.91
152145387658,-0.4408737,-0.89526826,9.984827,0.010560608,8.361816E-4,-0.056819152,77.65930362,12.83920808,7.28
152145387680,-0.4026886,-0.83146363,9.853625,0.045558166,0.0035507202,-0.06022644,77.65930362,12.83920808,7.28
152145387702,-0.40938872,-0.89299166,9.922216,-0.035676576,-0.0044387816,-0.06603394,77.65930362,12.83920808,7.28
152145387724,-0.33564758,-0.9334534,9.872539,0.05684662,-0.008326721,-0.06746979,77.65930362,12.83920808,7.28
152145387746,-0.41262206,-1.1744308,9.726972,-0.0139953615,-0.017704774,-0.05314331,77.65930362,12.83920808,7.28
152145387768,-0.3464218,-1.0726807,9.592775,-0.062094115,0.0057907104,-0.044088744,77.65924045,12.83918134,7.13
152145387790,-0.1619461,-0.9971405,9.991051,0.034368895,-0.005291748,-0.08771362,77.65924045,12.83918134,7.13
152145387812,-0.22922364,-1.000972,10.057132,0.056632996,-0.06686859,-0.08707275,77.65924045,12.83918134,7.13
152145387834,-0.29254913,-1.030661,9.799756,-0.008831787,-0.15874329,-0.08483581,77.65924045,12.83918134,7.13
152145387856,-0.66951907,-1.1066787,9.225029,0.0020889281,-0.16066436,0.040873718,77.65924045,12.83918134,7.13
152145387878,-0.82849884,-0.8015335,9.824056,0.024992371,-0.026062012,0.1600769,77.65920614,12.83915785,5.29
152145387900,-0.21425934,-1.088121,9.941973,0.0012893677,0.05292969,0.12087555,77.65920614,12.83915785,5.29
152145387922,0.14439392,-0.90604246,9.628569,-0.033758543,0.009309387,-0.013087464,77.65920614,12.83915785,5.29
152145387944,-0.13058166,-1.040715,9.596967,0.02483673,-0.017915344,0.016900634,77.65920614,12.83915785,5.29
152145387966,-0.07395935,-1.0976975,9.841891,-0.034825135,-0.030541992,0.038905334,77.65919667,12.83913318,3.28
152145387989,-0.20659943,-1.0616668,9.405191,-0.0062179565,-0.07938538,0.01605072,77.65919667,12.83913318,3.28
152145388011,-0.665329,-0.9541672,9.701711,-0.015753174,-0.006304932,0.15725403,77.65919667,12.83913318,3.28
152145388033,0.12464447,-1.1296585,10.151225,-0.023268128,0.080947876,0.105322264,77.65919667,12.83913318,3.28
152145388055,-0.0021331788,-0.8395996,9.738104,0.050987244,0.054527283,-0.0036071776,77.65919667,12.83913318,3.28
152145388077,-0.23353577,-1.2497269,9.771024,-0.12420044,0.01526947,0.012110901,77.65914278,12.83909302,5.66
152145388099,0.5371628,-0.83493197,9.57841,0.059777834,0.010475159,-0.031407166,77.65914278,12.83909302,5.66
152145388121,-0.27926484,-1.0717194,10.293437,0.027337646,-0.07293854,-0.047712706,77.65914278,12.83909302,5.66
152145388143,-0.06222687,-0.9492569,9.095617,1.7242432E-4,-0.14217988,-0.0014755249,77.65914278,12.83909302,5.66
152145388165,-0.7162064,-0.8996979,10.30924,0.04757843,-0.027502442,0.16167298,77.65909253,12.83905505,5.58
152145388187,0.05856018,-1.1522872,9.787424,-0.0055786134,0.052664183,0.124765016,77.65909253,12.83905505,5.58
152145388209,0.017619323,-0.8913177,9.7910185,-0.026992798,0.056713868,0.08572082,77.65909253,12.83905505,5.58
152145388231,0.041920472,-1.1266663,9.804062,0.0024642944,0.043025207,0.016104126,77.65909253,12.83905505,5.58
152145388253,-0.026075745,-0.9601456,9.346411,0.012051391,0.023420716,0.02127533,77.65909253,12.83905505,5.58
152145388275,0.13828583,-1.1309754,10.410395,-0.008776856,-0.021699524,-0.027148437,77.65903697,12.83902888,5.18
152145388297,-0.04498749,-1.3414291,9.440623,-0.0015869141,-0.025534058,0.010247802,77.65903697,12.83902888,5.18
152145388319,-0.30523986,-1.3611816,9.950829,0.04332123,0.039988708,0.07975616,77.65903697,12.83902888,5.18
152145388341,0.059280396,-1.3150924,9.716916,0.013702393,0.05111847,0.04481659,77.65903697,12.83902888,5.18
152145388363,0.47024995,-1.3282608,9.805499,-0.051123045,-0.036824036,-0.086753845,77.65899951,12.83900152,4.63
152145388385,-0.047865294,-1.3548371,9.71488,0.020411681,-0.04033966,-0.0354599,77.65899951,12.83900152,4.63
152145388407,-0.0047653196,-1.4285781,10.198029,0.010879517,-0.049821474,-0.0060058595,77.65899951,12.83900152,4.63
152145388429,-0.23616639,-1.4328873,9.295298,0.0426239,-0.027078247,0.087638855,77.65899951,12.83900152,4.63
152145388451,-0.21880646,-1.5842025,10.181509,-0.035943605,-0.042417906,0.09967804,77.65899951,12.83900152,4.63
152145388473,-0.03325653,-1.3244308,9.599718,0.023451233,-0.045559693,0.13248749,77.6589608,12.83897169,3.75
152145388495,-0.44709778,-1.6997207,9.89133,-0.0025466918,-0.029261779,0.16758423,77.6589608,12.83897169,3.75
152145388517,-0.29566193,-1.5703156,9.531123,-0.03525238,0.019960022,0.24907836,77.6589608,12.83897169,3.75
152145388539,0.14140168,-1.4126556,9.898758,-0.039456178,0.0076538087,0.17573853,77.6589608,12.83897169,3.75
152145388561,-0.4152588,-1.3149719,9.569551,-0.030084228,-0.017756652,0.15603027,77.65894328,12.83894899,3.19
152145388583,-0.7752228,-1.0817779,9.98411,0.052693177,0.04888458,0.2905716,77.65894328,12.83894899,3.19
152145388605,0.15516815,-1.018335,10.048869,-0.03855438,0.029711913,0.19730835,77.65894328,12.83894899,3.19
152145388627,-0.16434173,-0.840802,10.014994,0.094451904,0.01942749,0.098451234,77.65894328,12.83894899,3.19
152145388649,-0.24346924,-0.997023,9.6783695,-0.0064346315,0.004298401,0.14047547,77.65894328,12.83894899,3.19
152145388672,0.18880768,-1.0966232,10.085623,2.2583008E-4,-0.041249085,0.07096557,77.65893733,12.83892688,2.76
152145388694,-0.5693222,-1.0431122,9.41333,-0.019859314,-0.07277985,0.06702423,77.65893733,12.83892688,2.76
152145388716,-0.36473542,-1.0458634,9.912642,0.0066711428,-0.056799315,0.25589904,77.65893733,12.83892688,2.76
152145388738,-0.15093079,-1.0004914,9.714398,-0.035729982,-0.095947266,0.1944336,77.65893733,12.83892688,2.76
152145388760,-1.1300461,-1.2743881,9.761925,-0.03450165,-0.01200409,0.41675264,77.65893164,12.83890561,2.22
152145388782,0.14200135,-1.0654984,9.819029,0.048216246,0.055914305,0.45041353,77.65893164,12.83890561,2.22
152145388804,-0.100170895,-0.8521668,9.348566,0.038096618,0.10102997,0.28370056,77.65893164,12.83890561,2.22
152145388826,0.3963852,-1.205075,10.630182,-0.11274872,0.09490204,0.14500579,77.65893164,12.83890561,2.22
152145388848,0.29798126,-1.0718384,9.215688,-0.02709961,0.013569641,-0.049147032,77.65893164,12.83890561,2.22
152145388870,-0.002610779,-0.4242035,9.427095,0.04736328,0.032580566,-0.06006775,77.65893234,12.83887521,2.3
152145388892,0.16450195,-1.3501648,10.532858,0.00496521,-0.056056213,-0.10677948,77.65893234,12.83887521,2.3
152145388914,-0.9802872,-0.9542831,9.443138,-0.05495758,-0.002203369,0.030911256,77.65893234,12.83887521,2.3
152145388936,-0.2184494,-1.0429901,9.874812,0.018977355,0.050854493,0.2111557,77.65893234,12.83887521,2.3
152145388958,-0.05432739,-0.8628281,9.786824,0.0060821534,0.042544555,0.04827728,77.65893234,12.83887521,2.3
152145388980,-0.45571747,-1.2858841,9.973572,0.0073654177,0.10406189,0.084178165,77.65892846,12.8388488,2.13
152145389002,0.28146058,-1.2468567,9.551834,-0.005796814,0.1260086,-0.010423278,77.65892846,12.8388488,2.13
152145389024,0.7022446,-1.2788193,9.862722,0.033198547,0.0116470335,-0.35727692,77.65892846,12.8388488,2.13
152145389046,-0.35552216,-1.8096145,10.068265,0.012049866,-0.036026,-0.39125824,77.65892846,12.8388488,2.13
152145389068,-0.36832887,-1.7616119,9.590981,0.084918216,-0.04955597,-0.2794586,77.65892579,12.83883157,1.83
152145389090,-0.59793395,-1.4946579,9.589543,0.08156128,-0.043643188,-0.17415771,77.65892579,12.83883157,1.83
152145389112,-0.49138793,-1.4069092,9.619473,0.05929718,0.0072280886,-7.8125E-4,77.65892579,12.83883157,1.83
152145389134,-0.09503021,-1.6171219,10.07976,0.035273742,-0.03267212,-0.04573822,77.65892579,12.83883157,1.83
152145389156,-0.029786682,-2.001268,9.644012,-0.041644286,0.0040863035,-0.04850769,77.65892579,12.83883157,1.83
152145389178,-0.25747833,-1.9726593,9.714399,0.015403748,0.050318908,-0.059480287,77.65892273,12.83882028,1.11
152145389200,-0.67730105,-1.5316452,9.781799,-0.018687438,-0.007635498,-0.018521119,77.65892273,12.83882028,1.11
152145389222,-0.35300598,-0.51183164,9.76133,0.018815612,-0.119226076,-0.0023788451,77.65892273,12.83882028,1.11
152145389244,0.12643738,-0.4433548,9.828128,0.0054977415,-0.13190155,0.0044403076,77.65892273,12.83882028,1.11
152145389266,0.30504912,-0.46753693,9.772818,-0.0025497437,0.0044586184,-0.0028076172,77.6589255,12.83881998,0.0
152145389288,0.03928833,-0.451976,9.821543,0.0033126832,0.03843994,0.0049179075,77.6589255,12.83881998,0.0
152145389310,-0.09502868,-0.5097977,9.844523,0.0043792725,0.020439148,0.009181214,77.6589255,12.83881998,0.0
152145389333,-0.08856354,-0.45221406,9.793528,-0.0070755007,-0.043164063,0.013549805,77.6589255,12.83881998,0.0
152145389354,0.37256163,-0.5995804,9.850392,-0.031471252,0.038974,0.027770996,77.6589255,12.83881998,0.0
152145389377,-0.26621246,-0.80704194,9.663164,-0.01687622,0.056178283,-0.023687745,77.65892534,12.83882518,0.0
152145389399,-0.1874466,-0.57360536,9.716075,0.020785522,-0.043429565,0.013653564,77.65892534,12.83882518,0.0
152145389421,0.08813019,-0.30664673,9.818547,-0.01085968,-0.012538147,-0.0055252076,77.65892534,12.83882518,0.0
152145389443,-0.049060058,-0.4605957,9.863919,-7.3547364E-4,5.1574706E-4,0.0028396607,77.65892534,12.83882518,0.0
152145389465,0.0033737184,-0.5579208,9.816632,-0.0056350706,0.016818237,-0.002380371,77.65892537,12.83882177,0.0
152145389487,-0.057920836,-0.5646286,9.790533,0.0013427734,-0.024789428,-0.0012069702,77.65892537,12.83882177,0.0
152145389509,0.078077696,-0.53673095,9.848715,0.002406311,-0.024468994,-6.7596434E-4,77.65892537,12.83882177,0.0
152145389531,0.111595154,-0.53517914,9.797839,0.0028366088,-0.008491516,-4.6081544E-4,77.65892537,12.83882177,0.0
