timestamp,accx,accy,accz,gyrx,gyry,gyrz,longitude,latitude,speed
152145275033,-0.19235381,-1.0894394,9.740616,3.3721924E-4,1.2664795E-4,-4.943848E-4,77.6652097,12.84190493,0.0
152145275055,-0.1432724,-1.1101516,9.731877,2.822876E-4,-0.0074905395,4.119873E-5,77.6652097,12.84190493,0.0
152145275077,-0.13153991,-1.0908753,9.752947,-0.0065856935,0.030810546,0.0015869141,77.6652097,12.84190493,0.0
152145275099,-0.34043884,-1.121878,9.727449,-0.0060028075,0.02942505,0.0045684814,77.6652097,12.84190493,0.0
152145275121,-0.31852874,-1.1162536,9.730322,0.010140991,-0.0060546873,0.0038238526,77.6652097,12.84190493,0.0
152145275143,-0.36317903,-1.0854905,9.766355,0.007373047,-0.03412323,-0.0027816773,77.6652097,12.84190493,0.0
152145275165,-0.123399355,-1.0449097,9.709254,0.02798767,-0.07007904,-9.7351073E-4,77.6652097,12.84190493,0.0
152145275187,-0.034812927,-0.9928299,9.803945,0.011314392,-0.055271912,-0.0049728393,77.6652097,12.84190493,0.0
152145275209,0.07388763,-0.92902833,9.701714,0.027510071,-0.046696473,-0.0040649413,77.6652097,12.84190493,0.0
152145275231,0.06646423,-1.0000168,9.825731,-3.6621095E-5,-0.09415436,-0.0087539675,77.6652097,12.84190493,0.0
152145275253,0.597139,-0.92328036,9.7885,0.011471557,-0.05836029,0.0051574707,77.6652097,12.84190493,0.0
152145275275,0.3445511,-0.92196196,9.706978,-0.0022735596,-0.0072769164,-0.003477478,77.6652097,12.84190493,0.0
152145275297,0.4446289,-0.8891632,9.77641,0.00337677,-0.004722595,-0.0015045166,77.6652097,12.84190493,0.0
152145275319,0.49813843,-0.87061006,9.791254,-0.0074371337,-0.009301757,0.0021194457,77.6652097,12.84190493,0.0
152145275341,0.589238,-0.96027374,9.681005,-0.023527527,0.089292906,0.012878418,77.6652097,12.84190493,0.0
152145275363,-0.2816574,-0.96924895,9.742895,0.021008302,0.16870575,-0.022070313,77.66520985,12.84190485,0.0
152145275386,-0.056721497,-0.90484464,9.733914,-0.009092713,-0.04701233,0.011598205,77.66520985,12.84190485,0.0
152145275408,-0.038641356,-0.9564392,9.785507,0.0017776489,-0.022778321,-0.008113098,77.66520985,12.84190485,0.0
152145275430,0.10261383,-0.9342941,9.755341,0.0039611817,-0.027357483,0.0043029785,77.66520985,12.84190485,0.0
152145275452,0.074719235,-0.9287903,9.751635,-0.0015792847,0.03683014,0.0010498047,77.66520985,12.84190485,0.0
152145275474,-0.043911744,-0.9556015,9.761328,-0.0021133423,0.009506226,0.0014801025,77.66520985,12.84190485,0.0
152145275496,-0.00954895,-0.9253128,9.781321,-0.0039733886,0.013555909,-4.40979E-4,77.66520985,12.84190485,0.0
152145275518,-0.12818909,-0.98816377,9.757497,-0.0016845703,0.01743927,1.9989014E-4,77.66520985,12.84190485,0.0
152145275540,-0.12064667,-0.95775604,9.764677,0.0015106201,-0.022142028,5.187988E-4,77.66520985,12.84190485,0.0
152145275562,-0.053129576,-0.9305832,9.791016,4.40979E-4,-0.034283448,-0.0019851686,77.66520991,12.84190492,0.0
152145275584,0.028875733,-1.0134217,9.771024,0.001828003,-0.03902588,-0.0026245117,77.66520991,12.84190492,0.0
152145275606,0.14906463,-0.9596726,9.775694,-7.8277587E-4,-0.009136963,-1.5258789E-5,77.66520991,12.84190492,0.0
152145275628,0.06239166,-0.8999405,9.732358,-0.0024856566,0.03272705,6.790161E-4,77.66520991,12.84190492,0.0
152145275650,-0.020329285,-0.9854126,9.747917,-5.691528E-4,0.024952698,0.0011566163,77.66520991,12.84190492,0.0
152145275672,-0.07240143,-0.9448288,9.773061,1.235962E-4,0.014941406,0.0012115479,77.66520991,12.84190492,0.0
152145275694,-0.07563476,-0.967096,9.762044,-3.036499E-4,0.025057983,0.0014251709,77.66520991,12.84190492,0.0
152145275716,-0.1965454,-0.9096344,9.768507,-0.0013137817,0.037844848,9.994507E-4,77.66520991,12.84190492,0.0
152145275738,-0.3006943,-0.8872482,9.77964,-1.9226075E-4,0.017866516,0.0011581421,77.66520991,12.84190492,0.0
152145275760,-0.29375154,-0.9143036,9.78922,-0.001954651,0.01909027,-0.0022506714,77.66520991,12.84190492,0.0
152145275782,-0.34750062,-0.52320707,9.777849,0.00524292,-0.005836487,0.0030792237,77.66520991,12.84190492,0.0
152145275804,-0.38807982,-0.3127533,9.822499,0.022233581,-0.029754639,-0.0032104491,77.66520991,12.84190492,0.0
152145275826,-0.24311066,-0.123010255,9.738823,0.002735901,-0.045895386,0.012612915,77.66520991,12.84190492,0.0
152145275848,-0.08545227,-0.16766663,9.638147,-0.004988098,-0.0033874512,0.010798645,77.66520991,12.84190492,0.0
152145275870,-0.22682953,0.08097534,9.837341,0.015788268,-0.0059463503,-0.010031128,77.66520991,12.84190492,0.0
152145275892,-0.3734787,0.09665527,9.912523,-0.010423278,0.0035369874,0.040631104,77.66520991,12.84190492,0.0
152145275915,-0.27064818,0.035365295,9.806337,0.0032684326,-0.011914062,0.029177856,77.66520991,12.84190492,0.0
152145275936,-0.33768463,-0.26319274,9.538305,-0.020063782,0.04306183,0.080366515,77.66520991,12.84190492,0.0
152145275958,-0.03409729,0.03464203,10.069101,-0.0010482788,0.031079102,0.01042633,77.66520991,12.84190492,0.0
152145275981,-0.25867158,0.043025207,9.643771,-0.01564331,0.030651856,-0.023666382,77.66520991,12.84190492,0.0
152145276002,-0.03828583,-0.00916748,10.006734,0.012963867,-0.019102478,-0.12747498,77.66520991,12.84190492,0.0
152145276024,-0.5141388,-0.05597534,9.774137,0.01941223,-0.044192504,-0.10089569,77.66520991,12.84190492,0.0
152145276047,-0.41022795,-0.09260406,9.7346325,0.0068389894,-0.031726073,-0.019134521,77.66520991,12.84190492,0.0
152145276068,-0.14842224,-0.1052948,9.781557,0.0018325805,-0.047439575,0.006170654,77.66522609,12.84190321,2.18
152145276091,-0.6796967,-0.268219,9.760968,-0.006904602,-0.020381164,0.08159027,77.66522609,12.84190321,2.18
152145276113,-0.5935043,-0.30820617,9.671663,-0.026083374,0.037254333,0.18758392,77.66522609,12.84190321,2.18
152145276135,0.25321046,-0.212677,9.695486,-0.0015274048,0.014616394,0.016494751,77.66522609,12.84190321,2.18
152145276157,-0.5211975,-0.2885727,9.737864,0.0044967653,-0.0011505127,0.0015304566,77.66525227,12.84191472,2.62
152145276179,-0.1855301,-0.28366548,9.826449,7.6293945E-4,0.01035614,0.020869445,77.66525227,12.84191472,2.62
152145276201,-0.112146,-0.345195,9.737144,0.0064117434,-0.021020507,-0.058818053,77.66525227,12.84191472,2.62
152145276223,-0.32834473,-0.44216308,9.802625,8.163452E-4,0.004815674,0.028433228,77.66525227,12.84191472,2.62
152145276245,-0.3266739,-0.42025605,9.783594,6.04248E-4,0.019892883,0.02784729,77.66525227,12.84191472,2.62
152145276267,-0.25089112,-0.3683014,9.741336,-0.0068511963,0.016429137,0.011012268,77.66527418,12.84192328,2.75
152145276289,-0.51760864,-0.40660706,9.717631,-0.019050598,0.05579071,0.033920288,77.66527418,12.84192328,2.75
152145276311,0.22866973,-0.44778746,9.89504,-0.004136658,0.034910582,-0.05189514,77.66527418,12.84192328,2.75
152145276333,-0.17822571,-0.5113571,9.727925,0.018455505,-0.06752014,-0.16971283,77.66527418,12.84192328,2.75
152145276355,-0.5800964,-0.4699356,9.774378,0.006037903,-0.07108764,0.013623047,77.66532463,12.84191718,3.51
152145276377,-0.32116395,-0.39343873,9.877563,0.005718994,-0.042007446,0.03413086,77.66532463,12.84191718,3.51
152145276399,-0.25208893,-0.4181015,9.789099,0.0044418336,-0.039613344,0.030297851,77.66532463,12.84191718,3.51
152145276421,-0.6775406,-0.44898683,9.644249,-0.003442383,0.0040161135,0.0886734,77.66532463,12.84191718,3.51
152145276443,-0.28860015,-0.57240754,9.73439,-0.015905762,0.090466306,0.1092865,77.66532463,12.84191718,3.51
152145276465,0.11530457,-0.57360685,9.803708,0.0044433596,0.084179685,-0.023825074,77.66536917,12.84191698,4.01
152145276487,0.096632384,-0.572525,10.013797,0.016477967,-0.014839172,-0.12055206,77.66536917,12.84191698,4.01
152145276509,-0.6133728,-0.73724973,9.628927,0.007902527,-0.056228638,-0.051145934,77.66536917,12.84191698,4.01
152145276531,-0.507312,-0.62184906,9.678248,-0.0044036866,0.0129119875,0.07195129,77.66536917,12.84191698,4.01
152145276553,-0.032418825,-0.61777496,9.897677,0.006465149,-0.002909851,-0.03820648,77.66540682,12.84192157,4.99
152145276575,-0.60607755,-0.6468674,9.666278,-0.0049362183,0.003857422,0.015010071,77.66540682,12.84192157,4.99
152145276597,0.009957885,-0.5868927,9.711886,-0.0027496337,0.016003419,-0.0066726683,77.66540682,12.84192157,4.99
152145276619,-0.22276,-0.5692917,9.824292,0.019096375,-0.06880188,-0.09013977,77.66540682,12.84192157,4.99
152145276641,-0.65682983,-0.5214127,9.765277,-0.01521759,-0.01547699,0.0617218,77.66540682,12.84192157,4.99
152145276663,-0.36090547,-0.7824997,9.48851,-0.02123413,0.043063354,0.057406615,77.66546298,12.84191879,5.38
152145276686,0.1844986,-0.56378937,10.133865,0.028892517,0.042900085,-0.027497863,77.66546298,12.84191879,5.38
152145276708,-0.2760315,-0.9390793,9.69441,-0.018305968,-0.040516663,-0.08161621,77.66546298,12.84191879,5.38
152145276729,-0.3337326,-1.0830948,9.761088,0.012486267,-0.06144867,-0.020895386,77.66546298,12.84191879,5.38
152145276751,-0.41106415,-1.0974579,9.696083,0.001512146,-0.0418457,0.0342926,77.66546298,12.84191879,5.38
152145276774,-0.29051667,-1.1759872,9.656221,-0.0069610598,-0.014151001,0.054907225,77.66551494,12.84191533,5.68
152145276796,-0.41453856,-1.0619049,9.658498,-0.0031219483,-8.544922E-5,0.039509583,77.66551494,12.84191533,5.68
152145276818,-0.38137817,-1.0973403,9.698001,-0.0024337769,0.047055054,0.057778932,77.66551494,12.84191533,5.68
152145276840,-0.043913268,-1.0298188,10.0206175,-0.0044036866,0.048173524,-0.0052322387,77.66551494,12.84191533,5.68
152145276862,-0.16673431,-1.1168518,9.768033,-4.5928956E-4,-0.019366454,-0.06334686,77.66556807,12.84191138,5.48
152145276884,-0.51222384,-1.1022491,9.680761,-0.0013656616,-5.615234E-4,0.029763794,77.66556807,12.84191138,5.48
152145276906,-0.025834655,-1.1021302,9.752588,-0.0016845703,0.013397217,-0.009866333,77.66556807,12.84191138,5.48
152145276928,-0.32152098,-1.104161,9.688426,2.3345948E-4,-0.012019348,-0.022016907,77.66556807,12.84191138,5.48
152145276950,-0.1715271,-1.0796219,9.731161,-0.002003479,-0.010418701,-0.008430481,77.66556807,12.84191138,5.48
152145276972,-0.24838257,-1.1771835,9.658977,-6.7749026E-4,-0.017662048,-0.017807007,77.66561463,12.84190581,5.46
152145276994,-0.20636597,-1.1188889,9.749834,-0.010263061,-0.013458252,0.0028640747,77.66561463,12.84190581,5.46
152145277016,-0.23688659,-1.1243927,9.7384615,-3.02124E-4,-0.029544067,-0.008538818,77.66561463,12.84190581,5.46
152145277038,-0.44351044,-1.0155808,9.729485,-0.00546875,-0.012445068,0.039244078,77.66561463,12.84190581,5.46
152145277060,-0.24131623,-1.0647781,9.7630005,0.0097671505,0.011743164,0.031788636,77.66566399,12.84190638,5.57
152145277082,-0.18205872,-1.0578339,9.72733,0.0068359375,0.0047103884,0.011654663,77.66566399,12.84190638,5.57
152145277104,-0.45655823,-1.024916,9.786348,-0.0061050416,2.2888184E-5,0.02204132,77.66566399,12.84190638,5.57
152145277126,-0.35994568,-1.0196441,9.671186,-0.0039260862,0.042848207,0.040898133,77.66566399,12.84190638,5.57
152145277148,-0.08712921,-1.0917099,9.776291,-0.001473999,0.046470642,-0.026968384,77.66566399,12.84190638,5.57
152145277170,-0.14794159,-1.0883605,9.733313,0.011471557,0.017599488,-0.048432924,77.66571237,12.84190844,5.44
152145277192,-0.30140686,-1.0611862,9.716556,-0.0016845703,-0.01020813,-0.0482193,77.66571237,12.84190844,5.44
152145277214,-0.38688508,-1.0271866,9.678846,-0.0065338137,3.4332275E-4,-0.01136322,77.66571237,12.84190844,5.44
152145277236,-0.21653596,-1.0008514,9.816755,0.0129119875,-0.014630127,-0.041775513,77.66571237,12.84190844,5.44
152145277258,-0.31493837,-1.0538849,9.817949,8.7127683E-4,-0.02192688,-0.019937133,77.66575592,12.84190199,4.95
152145277280,-0.21222535,-1.0356888,9.62103,-0.008717346,-0.013989258,-0.015090942,77.66575592,12.84190199,4.95
152145277302,-0.34558257,-1.0004928,9.783116,0.007958984,-0.019955445,-0.018231202,77.66575592,12.84190199,4.95
152145277324,-0.27531433,-1.079982,9.900909,-6.713867E-4,-0.017878722,0.0017456055,77.66575592,12.84190199,4.95
152145277346,-0.5027649,-0.9681717,9.601514,0.0020446777,-0.0029647828,0.020333862,77.66575592,12.84190199,4.95
152145277368,-0.23233643,-0.98852384,9.948552,-0.0027526855,0.043914795,0.029283142,77.66581232,12.84189449,5.06
152145277391,0.11829834,-0.9690094,9.691896,0.017547607,-0.0077072144,-0.07255707,77.66581232,12.84189449,5.06
152145277412,-0.21366271,-0.9819382,9.758814,-3.5552977E-4,-0.0900528,-0.0730957,77.66581232,12.84189449,5.06
152145277435,-0.31015015,-0.9265121,9.851468,0.0051345825,-0.10736084,0.009791565,77.66581232,12.84189449,5.06
152145277456,-0.7247055,-1.0556793,9.673342,0.020796204,-0.04674835,0.12025909,77.66585794,12.84189083,4.85
152145277479,-0.25388488,-1.040953,9.851349,-0.0030670166,0.031181335,0.12611541,77.66585794,12.84189083,4.85
152145277501,-0.24969788,-0.9939102,9.505266,-0.04040985,0.033207703,0.04830017,77.66585794,12.84189083,4.85
152145277523,-0.25364685,-0.87180483,9.374306,-0.0145751955,0.06969605,0.07301025,77.66585794,12.84189083,4.85
152145277545,0.2165802,-0.953804,10.053297,0.03394928,0.037574768,-0.043902587,77.66585794,12.84189083,4.85
152145277567,-0.5215576,-0.91106874,9.73834,-0.0028015138,-0.020011902,-0.0153015135,77.66591211,12.84188833,5.03
152145277589,-0.40376434,-1.0226395,9.757616,-0.0097290035,0.024684142,0.038394164,77.66591211,12.84188833,5.03
152145277611,-0.19666748,-0.9724808,9.625096,-0.0070648193,0.044923402,0.0057403566,77.66591211,12.84188833,5.03
152145277633,-0.041278075,-0.9249557,9.792572,0.012275696,0.02798767,-0.044917297,77.66591211,12.84188833,5.03
152145277655,-0.19378968,-0.8716858,9.889658,0.005506897,-0.014892578,-0.06073456,77.66596237,12.84188543,5.14
152145277677,-0.37647247,-0.90604246,9.775574,0.016429137,-0.02618866,-0.036131285,77.66596237,12.84188543,5.14
152145277699,-0.36785126,-0.8205673,9.825374,0.009342956,-0.017399598,-0.0035842895,77.66596237,12.84188543,5.14
152145277721,-0.36988527,-0.9976181,9.852907,-0.003175354,0.0057769776,0.0066467286,77.66596237,12.84188543,5.14
152145277743,-0.12519836,-0.88700867,9.844767,0.0025253296,0.013287353,-0.012902832,77.66596237,12.84188543,5.14
152145277765,-0.3677307,-0.85923463,9.939336,0.01035614,0.004711914,-0.025105286,77.66601386,12.84188811,5.32
152145277787,-0.17691192,-0.951651,9.666517,-0.0018997192,0.009773254,-0.021589661,77.66601386,12.84188811,5.32
152145277809,-0.107243344,-0.84379274,9.690218,6.591797E-4,-0.022776794,-0.05951233,77.66601386,12.84188811,5.32
152145277831,-0.31637114,-0.8935913,9.73427,0.014562989,-0.064323425,-0.04427948,77.66601386,12.84188811,5.32
152145277853,-0.5095886,-0.85600436,9.773776,-0.004136658,-0.049090575,0.028860474,77.66606552,12.84187867,5.46
152145277875,-0.30332488,-0.8232056,9.823337,-0.005256653,-0.009513855,0.047605895,77.66606552,12.84187867,5.46
152145277897,-0.3188904,-0.78489685,9.802748,0.008010864,0.0010879517,0.030081177,77.66606552,12.84187867,5.46
152145277919,-0.3081131,-0.935849,9.738701,-0.025868226,0.015202331,0.03066864,77.66606552,12.84187867,5.46
152145277941,-0.29626006,-0.856839,9.410936,2.8381348E-4,0.031234741,0.02848816,77.66606552,12.84187867,5.46
152145277963,-0.0040481566,-0.67954713,9.925688,0.0128067015,0.015522766,-0.020310974,77.66611704,12.84187602,5.53
152145277985,-0.3306183,-0.6688919,9.986742,0.0139251705,-0.018623352,-0.026487732,77.66611704,12.84187602,5.53
152145278007,-0.27698976,-0.7499374,9.679924,0.010568237,-0.017294312,0.008990479,77.66611704,12.84187602,5.53
152145278029,-0.40160674,-0.7929138,9.714398,-0.008183288,-0.02362976,0.009254456,77.66611704,12.84187602,5.53
152145278051,-0.29123688,-0.7131897,9.80969,0.0061447145,0.004600525,0.042225648,77.66617457,12.84187618,5.72
152145278073,-0.29410857,-0.82020724,9.365805,0.021061707,0.022445679,0.02603302,77.66617457,12.84187618,5.72
152145278096,0.0670578,-0.9187256,9.43775,-0.038546752,0.019622803,-0.005604553,77.66617457,12.84187618,5.72
152145278117,-0.090242006,-0.4170212,10.37113,0.02798462,-0.008024598,-0.0327713,77.66617457,12.84187618,5.72
152145278140,-0.3865265,-0.8654556,10.149907,0.038316347,-0.079826355,-0.035009764,77.66617457,12.84187618,5.72
152145278161,-0.6644928,-0.7092377,9.473546,-0.016920472,-0.0450943,0.085795596,77.66622701,12.84187414,5.7
152145278184,-0.39897308,-0.78154296,9.913719,0.011259461,0.039387513,0.08643494,77.66622701,12.84187414,5.7
152145278206,-0.19319458,-0.81529844,9.741453,-0.0074386597,0.06841278,0.03343811,77.66622701,12.84187414,5.7
152145278228,-0.12160339,-0.7785492,9.826448,0.0064666746,0.057389833,-0.010881042,77.66622701,12.84187414,5.7
152145278250,-0.09897766,-0.71151125,9.793169,0.009713745,0.011100769,-0.050668336,77.66622701,12.84187414,5.7
152145278272,-0.41740876,-0.74754333,9.727208,-5.126953E-4,-0.029966736,-0.03538513,77.66628351,12.84187646,5.69
152145278294,-0.38604888,-0.6875671,9.826693,0.017654419,-0.013885498,0.0102676395,77.66628351,12.84187646,5.69
152145278316,-0.45487976,-0.825116,9.735708,-0.008503723,2.8533937E-4,0.008085633,77.66628351,12.84187646,5.69
152145278338,-0.40400085,-0.73150176,9.573624,-0.006748962,0.050201416,0.027156066,77.66628351,12.84187646,5.69
152145278360,0.06861725,-0.6984619,9.889537,0.009342956,0.030381775,-0.0575943,77.66633556,12.84187241,5.7
152145278382,-0.32487336,-0.73641205,9.734873,0.012486267,-0.055482484,-0.08118744,77.66633556,12.84187241,5.7
152145278404,-0.43584442,-0.7575989,9.731641,-0.008450317,-0.039613344,0.0042449953,77.66633556,12.84187241,5.7
152145278426,-0.3403198,-0.7549683,9.668551,-0.008985901,-0.014361572,0.0038223267,77.66633556,12.84187241,5.7
152145278448,-0.27196503,-0.7473038,9.786348,-0.0046707154,-0.02262268,-0.0012924194,77.66633556,12.84187241,5.7
152145278470,-0.5785416,-0.7408432,9.618149,-0.007545471,0.0025787354,0.038713075,77.66639176,12.84186807,5.39
152145278492,-0.21977082,-0.78752595,9.758696,-0.0040298463,0.038908385,0.018312072,77.66639176,12.84186807,5.39
152145278514,-0.1721222,-0.85324705,9.729007,0.0015640259,0.01664276,-0.03591614,77.66639176,12.84186807,5.39
152145278536,-0.12723084,-0.9925888,9.788022,-0.003604126,-0.0176651,-0.034370422,77.66639176,12.84186807,5.39
152145278558,-0.28944093,-1.1360047,9.719907,0.0044387816,-0.062091064,-0.038630676,77.66644143,12.8418692,5.39
152145278580,-0.49007416,-1.0695633,9.754146,-0.0029678345,-0.06687927,0.024276733,77.66644143,12.8418692,5.39
152145278602,-0.37647095,-1.0874008,9.757855,-0.006427002,-0.023153687,0.059059143,77.66644143,12.8418692,5.39
152145278624,-0.28621063,-1.1084716,9.6660385,-0.009785461,-0.0046142577,0.03807373,77.66644143,12.8418692,5.39
152145278646,-0.3745575,-1.0483795,9.743611,-0.0030715943,1.8005371E-4,0.03626404,77.66644143,12.8418692,5.39
152145278668,-0.2656189,-1.1179276,9.749357,-0.0062149046,0.036349487,0.049099732,77.66651149,12.84187449,6.8
152145278690,-0.03277893,-1.048616,9.834471,0.0016708374,5.5541995E-4,-0.01593933,77.66651149,12.84187449,6.8
152145278712,-0.41190642,-1.1000931,9.696683,0.0012435913,-0.026826477,0.010321045,77.66651149,12.84187449,6.8
152145278734,-0.2592743,-1.0888398,9.71895,-0.0038726807,0.0064682006,0.044784546,77.66651149,12.84187449,6.8
152145278756,-0.31074828,-1.0868027,9.745526,-0.00887909,0.0025268556,0.013624573,77.66655574,12.84187309,5.71
152145278778,-0.30883485,-1.0586731,9.729727,-0.01010437,-0.011540222,0.015437317,77.66655574,12.84187309,5.71
152145278809,-0.414299,-1.0933883,9.674655,-0.015109253,0.017492676,0.043611147,77.66655574,12.84187309,5.71
152145278831,-0.27375793,-1.1029632,9.61971,-0.02374115,0.055793762,0.03599701,77.66655574,12.84187309,5.71
152145278853,-0.18062286,-1.1108688,9.802629,-0.009355163,0.049453735,-0.021324158,77.66655574,12.84187309,5.71
152145278875,-0.1996582,-1.0738785,9.777605,-0.0065322877,0.025325011,-0.042678833,77.66661747,12.84186821,5.52
152145278897,-0.07527771,-1.0869248,9.330851,0.010838318,-0.027946472,-0.06947327,77.66661747,12.84186821,5.52
152145278919,-0.27172393,-0.86833036,10.025049,0.001989746,-0.08744049,-0.050723266,77.66661747,12.84186821,5.52
152145278941,-0.4779831,-1.0490936,9.766836,0.02670746,-0.076257326,0.024916077,77.66661747,12.84186821,5.52
152145278963,-0.6447403,-0.870607,9.724217,-0.013084412,-0.005786133,0.09948883,77.66666479,12.84186839,5.24
152145278985,-0.27950287,-0.9393234,9.781201,-0.0050979615,0.06591034,0.061776735,77.66666479,12.84186839,5.24
152145279007,-0.18181762,-0.88544923,9.783116,-0.008293152,0.048175048,-0.00406189,77.66666479,12.84186839,5.24
152145279029,-0.28716278,-0.79830015,9.854223,0.0010314941,0.007371521,-0.03341217,77.66666479,12.84186839,5.24
152145279051,-0.28273925,-0.78393555,9.748398,0.006465149,-0.03764038,-0.039378356,77.66666479,12.84186839,5.24
152145279073,-0.4551193,-0.8518127,9.76492,0.006517029,-0.042913817,0.011065674,77.66672961,12.84187965,5.98
152145279095,-0.4218399,-0.7566406,9.856497,0.019410705,-0.009783936,0.038233947,77.66672961,12.84187965,5.98
152145279117,-0.4125015,-0.83146363,9.890015,-0.00504303,0.018612672,0.032162476,77.66672961,12.84187965,5.98
152145279139,-0.25759888,-0.8883255,9.790294,-0.004293823,0.030969238,0.01186676,77.66672961,12.84187965,5.98
152145279161,-0.28812256,-0.77388155,9.870623,0.006677246,0.023034668,-0.0047561647,77.66678787,12.84188161,5.89
152145279183,-0.28297576,-0.88963926,9.824533,1.7852783E-4,0.0047103884,-0.022442628,77.66678787,12.84188161,5.89
152145279205,-0.3393585,-0.83708495,9.542854,-0.0025924682,-0.010792541,-0.016421508,77.66678787,12.84188161,5.89
152145279227,-0.31385955,-0.7385696,9.828123,0.0016189575,-0.025387574,-0.017486572,77.66678787,12.84188161,5.89
152145279249,-0.39263457,-0.85037535,9.817949,0.016906738,-0.023684692,0.005419922,77.66678787,12.84188161,5.89
152145279271,-0.28560942,-0.7960266,9.807651,-0.010206604,-0.008876038,0.010110473,77.66685712,12.84189046,6.75
152145279293,-0.29362947,-0.7670593,9.659094,0.01781311,-0.023739625,-0.004811096,77.66685712,12.84189046,6.75
152145279315,-0.35708007,-0.8460663,10.044205,-0.011381531,-0.017825317,0.019378662,77.66685712,12.84189046,6.75
152145279337,-0.23616943,-0.8522934,9.714045,0.020535279,-0.021873474,0.013517762,77.66685712,12.84189046,6.75
152145279360,-0.26944733,-0.8713287,9.949513,0.004544067,-0.06182251,-0.0020370483,77.66685712,12.84189046,6.75
152145279382,-0.45188445,-0.79901886,9.700033,0.004069519,-0.03955841,0.056822203,77.66691238,12.84189152,6.93
152145279404,-0.3735977,-0.92507476,9.626056,-0.002217102,-0.015962219,0.05937805,77.66691238,12.84189152,6.93
152145279426,-0.26478118,-0.85372925,9.831118,9.262085E-4,-0.007118225,0.04867096,77.66691238,12.84189152,6.93
152145279448,-0.37383422,-0.86797637,9.748518,4.4403077E-4,0.019836426,0.059057616,77.66691238,12.84189152,6.93
152145279470,-0.1873291,-0.89191437,9.729845,-0.019955445,0.02878418,0.039990235,77.66696837,12.84189182,6.59
152145279492,-0.3313385,-0.84953916,9.784075,0.016056824,0.011636352,0.018310547,77.66696837,12.84189182,6.59
152145279514,-0.37683257,-0.8740784,9.823216,-7.8125E-4,0.01776123,0.036260985,77.66696837,12.84189182,6.59
152145279536,-0.29016113,-0.8325424,9.742055,0.004547119,0.032780457,0.025395203,77.66696837,12.84189182,6.59
152145279558,-0.17643432,-0.94207764,9.865114,-0.004777527,0.013233948,-0.004968262,77.66696837,12.84189182,6.59
152145279580,-0.28788453,-0.90963286,9.792334,0.013444519,-0.006954956,-0.0013427734,77.66702867,12.8418986,6.58
152145279602,-0.27555236,-0.9065186,9.781201,0.0010314941,-0.013189698,0.0012130737,77.66702867,12.8418986,6.58
152145279624,-0.3514511,-0.9471008,9.765518,0.004388428,-0.02645569,0.007284546,77.66702867,12.8418986,6.58
152145279646,-0.42591095,-0.9806244,9.840576,0.010462952,-0.017402649,0.02917633,77.66702867,12.8418986,6.58
152145279668,-0.39550477,-0.9573944,9.793409,0.0026290894,0.021969605,0.047821045,77.66710341,12.84190489,7.23
152145279690,-0.100413516,-1.1637787,9.874455,0.0040145875,0.023406982,0.0062713623,77.66710341,12.84190489,7.23
152145279712,-0.25137177,-1.2018448,9.883673,-0.0035522461,0.0010360718,-0.0046478272,77.66710341,12.84190489,7.23
152145279734,-0.26693574,-1.5519989,9.634554,0.014776612,-0.024911499,-0.008271789,77.66710341,12.84190489,7.23
152145279756,-0.47702637,-1.4482101,9.727208,0.004335022,-0.020332336,0.030084228,77.66710341,12.84190489,7.23
152145279778,-0.40412292,-1.4221146,9.778323,-4.0740968E-4,0.018238831,0.04776611,77.66717307,12.84190363,6.71
152145279800,-0.19008179,-1.2243545,9.773417,-0.009996032,0.028096009,0.008828735,77.66717307,12.84190363,6.71
152145279822,-0.26454163,-1.0530441,9.7741375,0.002416992,0.014778137,-0.002571106,77.66717307,12.84190363,6.71
152145279844,-0.28297576,-1.0469437,9.833033,0.004385376,0.026921082,-0.006248474,77.66717307,12.84190363,6.71
152145279866,-0.25747833,-1.0857239,9.785985,-8.346558E-4,0.029107666,-0.017593384,77.66722759,12.8419131,6.3
152145279888,-0.32427368,-0.93848264,9.8414135,0.015522766,0.023884583,-0.022973632,77.66722759,12.8419131,6.3
152145279910,-0.3806595,-1.0619049,9.609415,-0.0275177,0.03086548,-0.021588136,77.66722759,12.8419131,6.3
152145279932,-0.2646637,-0.45987853,9.556743,0.035974123,0.05722809,-0.036715697,77.66722759,12.8419131,6.3
152145279954,-0.27100372,-0.5186569,10.0539,0.011524963,0.03437958,-0.06963196,77.66722759,12.8419131,6.3
152145279976,0.12631683,-0.46622315,9.800112,0.018878173,-0.05766449,-0.14617309,77.66728743,12.8419331,6.43
152145279999,-0.610144,-0.48214722,9.783831,0.020689392,-0.13522033,-0.074746706,77.66728743,12.8419331,6.43
152145280021,-0.51306,-0.33358765,9.7029085,0.012271118,-0.10906677,0.017459106,77.66728743,12.8419331,6.43
152145280042,-0.6149338,-0.48011017,9.890253,0.023350526,-0.05138092,0.068380736,77.66728743,12.8419331,6.43
152145280064,-0.31577453,-0.56091464,9.825369,-0.0108474735,0.014779663,0.07034912,77.66734425,12.84194184,6.5
152145280087,-0.1284256,-0.42791596,9.650597,0.01701355,0.03571167,0.03274536,77.66734425,12.84194184,6.5
152145280109,-0.14901885,-0.35142058,10.324921,-0.021977235,2.2888184E-5,-0.016047668,77.66734425,12.84194184,6.5
152145280131,-0.29350892,-0.5021347,9.888456,0.023191834,-0.046481322,-0.0014022827,77.66734425,12.84194184,6.5
152145280153,-0.53137666,-0.45987853,9.591696,-0.02416687,-0.022778321,0.05948639,77.66734425,12.84194184,6.5
152145280175,-0.18768463,-0.43426055,9.956098,0.022979736,0.031503297,0.052453615,77.66740362,12.84194699,6.33
152145280197,-0.30476227,-0.4105591,9.85925,0.0011367798,0.008702087,0.016926575,77.66740362,12.84194699,6.33
152145280219,-0.3892792,-0.45257416,9.89588,0.009448242,0.02665863,0.033065796,77.66740362,12.84194699,6.33
152145280241,-0.16697235,-0.4246872,9.769109,-0.0046142577,0.03075714,0.0089355465,77.66740362,12.84194699,6.33
152145280263,-0.27746886,-0.546669,9.728285,-0.020758057,-0.007118225,-0.016421508,77.66746554,12.84196524,6.93
152145280285,-0.30093232,-0.46849823,9.780004,0.017228698,0.010516358,0.01096344,77.66746554,12.84196524,6.93
152145280307,-0.13812561,-0.50453186,9.795323,-0.003979492,-0.013082886,-0.016952515,77.66746554,12.84196524,6.93
152145280329,-0.36389923,-0.5257187,9.827646,-0.0014724731,-0.055218507,-0.0085372925,77.66746554,12.84196524,6.93
152145280351,-0.5168915,-0.5739624,9.770065,-0.0026428222,-0.009992981,0.060391236,77.66746554,12.84196524,6.93
152145280373,-0.10496521,-0.5733658,9.777728,6.04248E-4,0.014350891,0.014050293,77.66753533,12.8419827,7.11
152145280395,-0.3880783,-0.61550295,9.705302,0.0070526125,-0.011856079,0.01101532,77.66753533,12.8419827,7.11
152145280417,-0.37922364,-0.6858948,9.800832,0.005932617,0.022982787,0.0446228,77.66753533,12.8419827,7.11
152145280439,-0.06593933,-0.80596465,9.862724,0.0073181153,0.010887146,-0.0094421385,77.66753533,12.8419827,7.11
152145280461,-0.37036285,-0.7645462,9.989853,0.01557312,-0.040516663,-0.008695984,77.66759997,12.841994,7.12
152145280483,-0.5153351,-0.81625366,9.740855,-0.0017913819,-0.008712769,0.049150087,77.66759997,12.841994,7.12
152145280505,-0.33121794,-0.8445099,9.628568,-0.0046661375,0.036187746,0.04175415,77.66759997,12.841994,7.12
152145280527,-0.1672165,-0.81171113,9.855898,9.246826E-4,0.054249573,0.007180786,77.66759997,12.841994,7.12
152145280549,-0.1502182,-0.86222684,9.683993,-0.013777161,0.011631775,-0.038471986,77.66759997,12.841994,7.12
152145280571,-0.29721984,-0.76382446,9.680639,0.01791687,-0.037957765,-0.034584045,77.66764973,12.84200982,5.64
152145280593,-0.503363,-0.66494447,10.072334,0.014190674,-0.029916381,0.020709228,77.66764973,12.84200982,5.64
152145280616,-0.38724518,-0.7632248,9.828244,0.01131134,0.014884949,0.030776978,77.66764973,12.84200982,5.64
152145280637,-0.21091156,-0.594072,9.566795,2.8381348E-4,0.025216674,0.0119720455,77.66764973,12.84200982,5.64
152145280659,-0.26346436,-0.60532683,9.993803,0.022924805,-0.0014175415,-0.019563293,77.66764973,12.84200982,5.64
152145280681,-0.40711516,-0.5555298,9.777487,-1.953125E-4,-0.008132935,-0.0010803223,77.66771821,12.8420328,6.81
152145280703,-0.37443694,-0.59670717,9.76899,0.019570922,-0.009304809,-7.064819E-4,77.66771821,12.8420328,6.81
152145280725,-0.3348114,-0.595871,9.748278,-0.009251404,-0.0063201906,0.007714844,77.66771821,12.8420328,6.81
152145280747,-0.40101013,-0.5856964,9.91707,0.006201172,0.0035369874,0.0050476072,77.66771821,12.8420328,6.81
152145280769,-0.2929123,-0.6600357,9.831716,0.0057769776,0.011157227,0.0049438477,77.66778028,12.84204518,6.41
152145280791,-0.3618637,-0.5929993,9.811966,-0.018037414,0.025163269,0.0047302246,77.66778028,12.84204518,6.41
152145280814,-0.13812408,-0.5676193,9.688421,0.024629211,0.0058288574,-0.03591614,77.66778028,12.84204518,6.41
152145280836,-0.32774657,-0.48143005,9.872892,0.0021514893,-0.05308838,-0.04912567,77.66778028,12.84204518,6.41
152145280858,-0.3557602,-0.55026245,9.619351,-0.017236328,-0.059584044,0.0064880373,77.66778028,12.84204518,6.41
152145280880,-0.48576507,-0.5538513,9.377414,-0.094099425,-0.041207887,0.033706665,77.66784615,12.84205193,6.63
152145280902,-0.31074676,-0.4465912,9.671184,0.004814148,-0.03454895,0.021243285,77.66784615,12.84205193,6.63
152145280924,-0.55495757,-0.68996274,9.5917,-0.055378724,9.262085E-4,0.06811676,77.66784615,12.84205193,6.63
152145280946,-0.30464172,-0.47639924,9.444097,-0.092134096,0.0700119,0.0635849,77.66784615,12.84205193,6.63
152145280968,-0.08257751,-0.6644653,9.902346,0.044233702,0.052009583,-0.022279358,77.66791371,12.84206319,6.11
152145280990,-0.3806595,-0.6990616,9.663289,-0.024858093,0.018614197,-0.015196228,77.66791371,12.84206319,6.11
152145281012,-0.23245697,-0.5419998,9.587507,-0.014411926,0.015896607,-0.023719788,77.66791371,12.84206319,6.11
152145281034,-0.2559204,-0.31215516,10.091728,0.035336304,-0.06336518,-0.06984558,77.66791371,12.84206319,6.11
152145281056,-0.65108645,-0.7139038,9.729242,-0.0022155761,-0.083444215,0.016925048,77.66791371,12.84206319,6.11
152145281078,-0.5250305,-0.6873291,9.805979,0.012489319,-0.001739502,0.07839508,77.66796961,12.84207486,5.7
152145281100,-0.16087036,-1.1431854,9.968066,-0.01756134,0.02159729,0.027742004,77.66796961,12.84207486,5.7
152145281122,-0.29757994,-1.070047,9.5662,-0.008934021,8.758545E-4,0.0041412353,77.66796961,12.84207486,5.7
152145281144,-0.31805268,-1.0220398,9.9177885,0.016001891,0.0053482056,0.016236877,77.66796961,12.84207486,5.7
152145281166,-0.24359283,-1.0859665,9.817952,0.013282776,-0.007810974,0.00206604,77.66802112,12.84208499,5.7
152145281188,-0.4374054,-1.0874023,9.705183,-0.017080689,-0.014309692,0.0216156,77.66802112,12.84208499,5.7
152145281210,-0.3409134,-1.0117447,9.814359,0.0032165528,0.019041443,0.036634825,77.66802112,12.84208499,5.7
152145281232,-0.31194305,-1.0537612,9.751631,-5.691528E-4,0.015524292,0.008509827,77.66802112,12.84208499,5.7
152145281254,-0.4745102,-1.0245545,9.448164,-0.055534363,0.023724366,0.017782593,77.66802112,12.84208499,5.7
152145281276,-0.3559967,-0.49854583,9.620665,0.05595093,0.05440674,-0.0018783569,77.66807031,12.84209803,6.29
152145281298,-0.087846376,-0.83625185,10.002184,0.001083374,-0.0029083253,-0.06404114,77.66807031,12.84209803,6.29
152145281320,-0.35623932,-0.6508163,9.563089,0.0020431518,-0.05920868,-0.043640137,77.66807031,12.84209803,6.29
152145281342,-0.4839676,-0.7468262,9.898633,0.01035614,-0.06683044,-0.0010238647,77.66807031,12.84209803,6.29
152145281364,-0.3933502,-0.7098373,9.827646,0.017282104,-0.050584413,0.035357665,77.66811391,12.84208763,6.26
152145281386,-0.47630614,-0.73365784,9.806219,0.0070526125,-0.03487091,0.05000458,77.66811391,12.84208763,6.26
152145281409,-0.54250795,-0.5775528,9.745046,-0.004774475,0.023246765,0.07871552,77.66811391,12.84208763,6.26
152145281430,-0.30799562,-0.5964676,9.875532,0.004815674,0.06692352,0.04409485,77.66811391,12.84208763,6.26
152145281452,-0.2198883,-0.65680236,9.680883,-0.0014724731,0.07059784,0.00483551,77.66811391,12.84208763,6.26
152145281475,-0.2255127,-0.6945114,9.708414,-0.007119751,0.023460388,-0.04486389,77.66817487,12.84211047,5.36
152145281497,-0.22611237,-0.68397826,9.753548,-0.0016845703,-0.0020568848,-0.034635924,77.66817487,12.84211047,5.36
152145281519,-0.17283936,-0.59957886,9.877088,0.010035706,-0.0598526,-0.055732727,77.66817487,12.84211047,5.36
152145281541,-0.53377074,-0.5753967,9.776172,0.019358825,-0.0952179,-0.01151886,77.66817487,12.84211047,5.36
152145281563,-0.55124664,-0.71246797,9.886065,0.024046326,-0.04600372,0.068058774,77.66822605,12.84212177,6.65
152145281585,-0.28584442,-0.6511749,9.935148,0.026495362,-0.00866394,0.045632936,77.66822605,12.84212177,6.65
152145281607,-0.38856047,-0.6466278,9.715477,-0.02698822,0.013446045,0.05346527,77.66822605,12.84212177,6.65
152145281629,-0.15440369,-0.63405913,9.652391,-0.011700439,0.025109863,0.028538514,77.66822605,12.84212177,6.65
152145281651,-0.22084808,-0.6864929,9.825015,0.0012420655,-0.007331848,-3.8604735E-4,77.66822605,12.84212177,6.65
152145281673,-0.23173675,-0.5531357,9.803586,0.008334351,-0.023471069,0.016983032,77.66829352,12.84214772,6.6
152145281695,-0.3440277,-0.6059265,9.729124,-0.0013122559,-0.029542541,0.018951416,77.66829352,12.84214772,6.6
152145281717,-0.42112273,-0.54176176,9.776649,0.002418518,-0.018305968,0.054800414,77.66829352,12.84214772,6.6
152145281739,-0.3873642,-0.67763364,9.872299,-0.0033355714,0.01791687,0.0588974,77.66829352,12.84214772,6.6
152145281761,-0.34462738,-0.64243776,9.787184,0.0100891115,0.04247589,0.04595337,77.66835266,12.84216882,6.71
152145281783,-0.18170014,-0.6542877,9.815074,-0.0013137817,0.042370606,0.011332703,77.66835266,12.84216882,6.71
152145281805,-0.18637085,-0.64949954,9.872658,0.01611023,0.017121887,-0.011309815,77.66835266,12.84216882,6.71
152145281827,-0.35827333,-0.62017214,9.879242,0.017066956,-0.021821594,-0.023558045,77.66835266,12.84216882,6.71
152145281849,-0.41693115,-0.7091171,9.84357,0.02159729,-0.008872986,0.031840514,77.66835266,12.84216882,6.71
152145281871,-0.27064666,-0.6487824,9.889175,6.6070555E-4,0.0091842655,0.018045044,77.66842955,12.84219568,6.93
152145281893,-0.26705474,-0.64351654,9.828486,0.011419678,-0.008450317,-0.011735534,77.66842955,12.84219568,6.93
152145281916,-0.2865677,-0.69055784,9.812202,0.003161621,-0.013619995,0.011816407,77.66842955,12.84219568,6.93
152145281937,-0.3628189,-0.6965469,9.722181,-0.005682373,-0.006959534,0.013519287,77.66842955,12.84219568,6.93
152145281959,-0.43069917,-0.59527284,9.742053,-0.0011032105,0.01493988,0.027792359,77.66842955,12.84219568,6.93
152145281981,-0.37311706,-0.55241853,9.830401,-0.007383728,0.03741455,0.020285035,77.6684931,12.84221799,6.69
152145282003,-0.29386598,-0.6254364,9.763123,-0.0038711547,0.057653807,0.00206604,77.6684931,12.84221799,6.69
152145282025,-0.13800201,-0.65715945,9.723976,0.0034820556,0.034968566,-0.0480072,77.6684931,12.84221799,6.69
152145282047,-0.16518097,-0.7168976,9.771983,0.0030578612,-0.014202881,-0.065797426,77.6684931,12.84221799,6.69
152145282069,-0.32786712,-0.6676941,9.69812,0.0012969971,-0.04951935,-0.043904115,77.66856,12.84223618,6.48
152145282091,-0.3593521,-0.556604,9.819865,0.002204895,-0.051646423,-0.012854004,77.66856,12.84223618,6.48
152145282113,-0.32044372,-0.5993439,9.80981,0.019567871,-0.05356903,-0.004701233,77.66856,12.84223618,6.48
152145282136,-0.44027558,-0.6316681,9.839739,-3.5095214E-5,-0.046269227,0.027685547,77.66856,12.84223618,6.48
152145282158,-0.42997894,-0.64507294,9.746246,-0.0095153805,-0.0038131713,0.053627014,77.6686178,12.84225093,6.48
152145282180,-0.19738312,-0.66710055,9.75977,-0.0022705079,0.023674011,0.033280946,77.6686178,12.84225093,6.48
152145282202,-0.16661683,-0.73760986,9.756778,0.0040649413,-0.010632324,-0.010827636,77.6686178,12.84225093,6.48
152145282224,-0.33469087,-0.6117935,9.712484,-0.005844116,-0.039875794,0.010002136,77.6686178,12.84225093,6.48
152145282246,-0.36629182,-0.5651077,9.82226,0.0034286499,-0.03189087,0.045103453,77.6686178,12.84225093,6.48
152145282268,-0.31613463,-0.49148256,9.983149,0.0033782958,-0.01638794,0.04169464,77.66868311,12.84227267,6.68
152145282290,-0.3855667,-0.61418456,9.664841,-0.0147918705,-0.013725281,0.042440794,77.66868311,12.84227267,6.68
152145282312,-0.4170517,-0.47651824,9.717631,-7.232666E-4,0.0099823,0.06598053,77.66868311,12.84227267,6.68
152145282334,-0.33612671,-0.6073593,9.971418,-0.018463135,0.043009948,0.06044159,77.66868311,12.84227267,6.68
152145282356,-0.2523285,-0.5160233,9.73894,0.0022018433,0.047854614,0.024169922,77.66868311,12.84227267,6.68
152145282378,-0.36377716,-0.6450745,9.7811985,-0.011590576,0.048973083,0.019592285,77.66873937,12.84229647,6.7
152145282400,-0.22694854,-0.5811432,9.743368,0.0051879883,0.04764099,-0.007524109,77.66873937,12.84229647,6.7
152145282422,-0.13022614,-0.5932373,9.787424,0.0059860228,0.013604736,-0.047421265,77.66873937,12.84229647,6.7
152145282444,-0.39143372,-0.46502534,9.880915,-0.0059432983,-0.020913696,-0.032298278,77.66873937,12.84229647,6.7
152145282466,-0.46493378,-0.4116333,9.587985,0.0016159058,-0.004133606,-0.0017730712,77.66878607,12.84231953,4.87
152145282488,-0.2688492,-0.43222657,9.913716,0.006996155,-0.010900879,-0.026382446,77.66878607,12.84231953,4.87
152145282510,-0.33026123,-0.62891084,9.755341,-2.471924E-4,-0.03556366,-0.029846191,77.66878607,12.84231953,4.87
152145282532,-0.351091,-0.49854738,9.695967,-0.005682373,-0.024855042,0.00632782,77.66878607,12.84231953,4.87
152145282554,-0.40089265,-0.4562851,9.7592945,0.011262512,-0.01153717,0.009577942,77.66878607,12.84231953,4.87
152145282576,-0.32331696,-0.5402069,9.911682,-0.0063705444,-0.016281128,-0.0035842895,77.66882898,12.84234136,5.86
152145282598,-0.21797028,-0.6163391,9.759529,0.041619875,-0.02645111,0.003024292,77.66882898,12.84234136,5.86
152145282621,-0.47427368,-0.58916473,9.829923,-0.02581482,-0.042489626,0.01186676,77.66882898,12.84234136,5.86
152145282642,-0.47846374,-0.42241058,9.385559,-0.0025390624,-0.0041885376,0.04787445,77.66882898,12.84234136,5.86
152145282664,-0.3485779,-0.5494232,9.900671,-0.021076966,0.025061036,0.04196167,77.6688889,12.84236487,6.98
152145282686,-0.2566391,-0.50513,9.676689,0.017437745,0.021594238,0.0029678345,77.6688889,12.84236487,6.98
152145282708,-0.41322175,-0.43605804,9.8083725,-0.011700439,0.022502135,0.015917968,77.6688889,12.84236487,6.98
152145282730,-0.29710084,-0.5217697,9.856257,-0.0013153076,0.051210023,0.012878418,77.6688889,12.84236487,6.98
152145282752,-0.106759645,-0.5886887,9.713203,-0.016601562,0.013070678,-0.048059084,77.6688889,12.84236487,6.98
152145282774,-0.31972656,-0.45018157,9.817232,0.021063233,-0.029063415,-0.033200074,77.6689536,12.84238244,6.69
152145282796,-0.40052795,-0.64590913,9.83495,-0.009037781,-0.04035492,-0.0106689455,77.6689536,12.84238244,6.69
152145282819,-0.45667267,-0.5595978,9.725174,0.021488953,-0.01260376,0.025769044,77.6689536,12.84238244,6.69
152145282841,-0.43488923,-0.4979431,9.804903,2.8533937E-4,0.029957581,0.034718323,77.6689536,12.84238244,6.69
152145282863,-0.2265915,-0.47125092,10.154096,0.031448364,0.029374694,-0.013969421,77.6690053,12.84240531,6.1
152145282885,-0.2917145,-0.5886887,9.237955,-0.09734955,0.014456177,-0.0301651,77.6690053,12.84240531,6.1
152145282907,-0.20097046,-0.18035278,9.890493,0.05653534,0.013554382,-0.02398529,77.6690053,12.84240531,6.1
152145282929,-0.2461029,-0.7101959,10.224009,-0.0036026002,-0.052983094,-0.07245483,77.6690053,12.84240531,6.1
152145282951,-0.50168765,-0.39715424,9.542259,0.0019363404,-0.064646915,0.0017471313,77.6690053,12.84240531,6.1
152145282973,-0.46433717,-0.57168734,9.940416,0.007369995,-0.01302948,0.04211731,77.66906214,12.84242941,6.38
152145282995,-0.33732453,-0.45197755,9.688185,-0.0012619018,0.010357666,0.021562194,77.66906214,12.84242941,6.38
152145283017,-0.38867798,-0.47352752,9.751393,-0.005682373,0.022660827,0.014424133,77.66906214,12.84242941,6.38
152145283039,-0.28046113,-0.52200925,9.736429,-0.006959534,0.03544464,9.994507E-4,77.66906214,12.84242941,6.38
152145283061,-0.1327362,-0.4930374,9.806338,-0.008984375,-0.0027496337,-0.039642334,77.66912253,12.84245663,6.21
152145283083,-0.29386902,-0.88461304,9.579967,-0.001953125,-0.054257203,-0.032296754,77.66912253,12.84245663,6.21
152145283105,-0.34271088,-1.0238373,9.816511,-0.0031219483,-0.063101195,0.004621887,77.66912253,12.84245663,6.21
152145283127,-0.41872865,-1.0410736,9.7484,0.003805542,-0.055749513,0.039564513,77.66912253,12.84245663,6.21
152145283149,-0.5146164,-1.115895,9.675974,-0.008450317,-0.002911377,0.077223204,77.66912253,12.84245663,6.21
152145283171,-0.14039917,-1.0476563,9.888937,-0.0013656616,0.038482666,0.051445007,77.6691815,12.84247247,6.37
152145283193,-0.2052826,-1.0361664,9.740618,-0.007174683,0.009825135,-0.008111572,77.6691815,12.84247247,6.37
152145283215,-0.3725174,-1.0319763,9.718593,4.4555665E-4,0.0015136718,0.027685547,77.6691815,12.84247247,6.37
152145283237,-0.19283143,-0.9231613,9.855898,0.008811951,-0.006425476,0.010108948,77.6691815,12.84247247,6.37
152145283259,-0.35396424,-0.9954651,9.937419,0.016322326,-0.02618866,0.010429382,77.6691815,12.84247247,6.37
152145283281,-0.40639955,-0.8850937,9.854101,0.011528015,0.0030593872,0.050483704,77.66922705,12.84249806,5.18
152145283303,-0.3024887,-0.7756729,9.912523,-0.004347229,0.004925537,0.028219605,77.66922705,12.84249806,5.18
152145283325,-0.32930452,-0.8945511,9.78467,0.0042816163,0.0049224854,0.024012756,77.66922705,12.84249806,5.18
152145283347,-0.30356598,-0.8016556,9.683516,-0.009571838,0.017654419,0.030509949,77.66922705,12.84249806,5.18
152145283369,-0.34211427,-0.88162386,9.732473,-0.0053604124,0.030278016,0.020391846,77.66926403,12.84252608,5.11
152145283391,-0.11597595,-1.042752,9.793887,0.009822083,0.022875976,-0.008378601,77.66926403,12.84252608,5.11
152145283413,-0.31134948,-1.0932693,9.703627,0.0055603026,0.0054046633,-0.02116394,77.66926403,12.84252608,5.11
152145283435,-0.18756866,-1.2102234,9.971298,0.019569397,-0.0029083253,-0.017648315,77.66926403,12.84252608,5.11
152145283457,-0.2574768,-1.4923813,9.698239,-0.016870117,-0.01105957,-0.015141296,77.66926403,12.84252608,5.11
152145283480,-0.25472412,-1.2566726,9.6983595,-0.03125,-0.0016830445,0.0011032105,77.66931073,12.84254783,5.4
152145283502,-0.16338196,-1.123558,9.849195,0.011476135,-0.016970824,-0.03330536,77.66931073,12.84254783,5.4
152145283524,-0.2813019,-1.0234772,9.733673,0.013446045,-0.03353882,-0.023719788,77.66931073,12.84254783,5.4
152145283546,-0.45021057,-1.0312607,9.762766,0.0125900265,-0.025653075,0.015490723,77.66931073,12.84254783,5.4
152145283568,-0.3008148,-0.91250765,9.796161,0.0050811768,-0.001097107,0.04590149,77.66936097,12.84256911,4.88
152145283590,-0.19654389,-0.94051516,9.632277,-0.010154724,0.0048202514,0.011653137,77.66936097,12.84256911,4.88
152145283612,-0.14949647,-0.898616,9.859129,-0.00935669,-0.010954285,-0.0040100096,77.66936097,12.84256911,4.88
152145283634,-0.19534607,-0.92807007,9.885945,0.030331422,-0.025654603,-0.008911133,77.66936097,12.84256911,4.88
152145283656,-0.19115905,-1.2012482,9.887262,0.005667114,-0.051596068,-0.0029449463,77.66936097,12.84256911,4.88
152145283678,-0.33050078,-1.2153747,9.692255,0.005455017,-0.04563141,0.05256195,77.66940527,12.84257979,4.35
152145283700,-0.33361205,-1.2783401,9.783829,-0.0052505494,-0.021022033,0.094422914,77.66940527,12.84257979,4.35
152145283722,-0.5188034,-1.1838913,9.70638,-0.0079193115,0.04497833,0.14295197,77.66940527,12.84257979,4.35
152145283744,-0.12100677,-1.1520493,9.929758,-0.021073913,0.1026123,0.12835693,77.66940527,12.84257979,4.35
152145283766,-0.07623444,-0.98026276,9.712483,0.008912658,0.12178345,5.17273E-4,77.66944068,12.84259747,3.61
152145283788,0.20628662,-0.80440676,9.965315,0.024206543,0.09025268,-0.11091156,77.66944068,12.84259747,3.61
152145283810,0.1240448,-0.38554078,9.865593,0.027400207,-0.004664612,-0.2441742,77.66944068,12.84259747,3.61
152145283832,-0.29746094,-0.2648697,9.907972,0.028201293,-0.09463501,-0.20805816,77.66944068,12.84259747,3.61
152145283854,-1.0226669,-0.21567078,9.787906,0.032461546,-0.07657318,-0.046461485,77.66944068,12.84259747,3.61
152145283876,-0.33743897,-0.16203766,9.860689,0.0031661987,-0.004930115,0.0797287,77.66946446,12.84261463,2.79
152145283898,-0.15045318,-0.13941345,9.6983595,0.021701049,-0.016760254,-0.027449036,77.66946446,12.84261463,2.79
152145283921,-0.592305,-0.072854616,10.589722,0.07038422,0.0075332643,0.026516724,77.66946446,12.84261463,2.79
152145283942,-0.15907593,0.103955075,9.728526,0.17616424,0.021170044,0.0120224,77.66946446,12.84261463,2.79
152145283964,-0.22048798,-0.18993072,9.802385,0.026867677,-0.01111145,-0.039431762,77.66949353,12.842629,3.46
152145283986,-0.20061493,-0.09296723,9.653227,-0.20238343,-0.024485778,-0.02877655,77.66949353,12.842629,3.46
152145284008,-0.4017288,0.052481078,9.070363,-0.1107193,-0.02128601,-0.026489258,77.66949353,12.842629,3.46
152145284031,-0.31529388,-0.37680054,9.230052,-0.17266388,-0.044192504,-0.008166504,77.66949353,12.842629,3.46
152145284052,-0.23903961,0.09055023,9.598761,-0.18512574,-0.043711852,0.006968689,77.66949353,12.842629,3.46
152145284074,-0.23425445,0.12466736,9.718112,0.19629821,-0.035191346,0.0066986084,77.66953416,12.84263301,3.89
152145284096,-0.45523986,-0.2760071,10.743909,0.105111696,-0.04057007,0.05144348,77.66953416,12.84263301,3.89
152145284118,-0.2749527,-0.11703034,9.550998,0.05909271,-0.02033081,0.084625244,77.66953416,12.84263301,3.89
152145284141,-0.28979796,-0.14791565,9.91025,-0.04210968,-0.02192688,0.072480775,77.66953416,12.84263301,3.89
152145284163,-0.3771866,0.17194824,9.874573,0.025163269,0.0011947632,0.08851471,77.66953416,12.84263301,3.89
152145284185,-0.20157166,-0.004142761,9.992846,0.021858215,0.0023117065,0.07045746,77.66957285,12.84264839,3.87
152145284207,-0.24035797,0.022795105,9.852907,0.0015655517,-0.02128601,0.052346803,77.66957285,12.84264839,3.87
152145284229,-0.32211915,-0.19148865,9.924016,0.011203003,-0.021342468,0.07966919,77.66957285,12.84264839,3.87
152145284251,-0.21617432,-0.22883911,9.879961,0.009928894,-0.017346192,0.090802,77.66957285,12.84264839,3.87
152145284273,-0.18181762,-0.25038606,9.6737,-0.0023757934,-0.008930969,0.08590241,77.66961418,12.84267285,4.68
152145284295,-0.36294097,0.0035186769,9.87074,-0.0291687,-0.002482605,0.107421875,77.66961418,12.84267285,4.68
152145284317,-0.20025483,0.18858795,9.753548,0.023352051,8.7280275E-4,0.07999115,77.66961418,12.84267285,4.68
152145284339,-0.28440857,0.12550354,9.857096,0.0059860228,-0.0057342527,0.082173154,77.66961418,12.84267285,4.68
152145284361,-0.2329361,0.0952179,9.897557,0.010140991,0.009294128,0.086703494,77.66966069,12.84269763,4.72
152145284383,-0.1551239,0.06624909,9.588823,-4.0740968E-4,-0.0031738281,0.06933594,77.66966069,12.84269763,4.72
152145284405,-0.2930298,0.09150696,9.890253,0.0015655517,-0.026669312,0.05463562,77.66966069,12.84269763,4.72
152145284427,-0.4850464,0.057748415,9.622225,-0.017718505,-0.015483093,0.10390778,77.66966069,12.84269763,4.72
152145284449,-0.37838286,0.07929535,9.7546215,-0.016654968,0.025909424,0.11908569,77.66966069,12.84269763,4.72
152145284471,-0.19402924,-0.037539672,9.642095,0.011631775,0.061224364,0.09304047,77.66969902,12.84272825,5.18
152145284493,-0.13249664,-0.05968628,9.719907,-0.011804199,0.051849365,0.035568237,77.66969902,12.84272825,5.18
152145284515,-0.35384065,-0.048194885,9.618993,-0.0013641358,0.043275453,0.035197448,77.66969902,12.84272825,5.18
152145284537,-0.23424987,-0.066271976,9.681598,-0.0126571655,0.05392761,0.020231629,77.66969902,12.84272825,5.18
152145284559,-0.14722443,0.03189087,9.725533,0.0038009644,0.037413023,-0.023667907,77.66969902,12.84272825,5.18
152145284581,-0.28656465,0.0150115965,9.931557,0.010513306,-0.005519104,-0.039645385,77.66975062,12.84275875,6.16
152145284603,-0.37850493,0.03404541,9.662209,0.0034805299,-0.022621155,-0.015731812,77.66975062,12.84275875,6.16
152145284625,-0.37395477,-0.09344788,9.851232,-0.014950561,-0.013031006,0.0027557374,77.66975062,12.84275875,6.16
152145284647,-0.30918884,-0.15832672,9.722539,0.019036865,0.013023376,0.012931824,77.66975062,12.84275875,6.16
152145284669,-0.19989625,-0.1663498,9.781319,-0.01260376,0.0058792112,-0.013920593,77.66979578,12.84279773,6.07
152145284691,-0.32223815,-0.04005432,9.844525,0.0049224854,-0.017079163,-0.028245544,77.66979578,12.84279773,6.07
152145284713,-0.33134308,-0.090933226,9.899472,0.0035354614,-0.025816346,-0.0065689087,77.66979578,12.84279773,6.07
152145284735,-0.44350737,-0.21997985,9.731161,-0.0033920289,-0.007382202,0.020602416,77.66979578,12.84279773,6.07
152145284757,-0.22994384,-0.28031462,9.7979555,0.0059310915,0.002206421,0.008566285,77.66979578,12.84279773,6.07
152145284779,-0.15356751,-0.23063202,9.797481,-0.0023284913,-0.01489563,-0.015194702,77.66985698,12.84282588,5.25
152145284801,-0.3024872,-0.19220734,9.800833,0.01030426,-0.031195069,-0.0045944215,77.66985698,12.84282588,5.25
152145284823,-0.34450683,-0.25900573,9.926287,0.0010848999,-0.051223755,0.010855103,77.66985698,12.84282588,5.25
152145284846,-0.5226364,-0.34423828,9.814238,0.0019348145,-0.029171754,0.051763915,77.66985698,12.84282588,5.25
152145284867,-0.4451828,-0.32412568,9.817708,-0.0037628175,0.020368958,0.06837921,77.66989217,12.84284448,4.72
152145284890,-0.23473358,-0.38170928,9.980395,-0.0074920654,0.037574768,0.029072572,77.66989217,12.84284448,4.72
152145284912,-0.31422272,-0.48166353,9.762523,-0.0034988404,0.043006897,0.021138001,77.66989217,12.84284448,4.72
152145284934,-0.12196503,-0.5143463,9.799873,-0.0030685426,0.027297974,-0.006617737,77.66989217,12.84284448,4.72
152145284956,-0.25543976,-0.4917206,10.0355835,0.02564392,-0.015534973,-0.030958558,77.66989217,12.84284448,4.72
152145284978,-0.36509857,-0.56378937,9.838901,0.010192871,-0.030664062,0.0056381226,77.66993447,12.84288947,6.13
152145285000,-0.3321762,-0.56917727,9.983505,0.006304932,-0.03263397,0.016183471,77.66993447,12.84288947,6.13
152145285022,-0.48312837,-0.50884247,9.723976,-0.01111145,-0.0279953,0.03312073,77.66993447,12.84288947,6.13
152145285044,-0.5868012,-0.5804291,9.828962,0.0077957152,0.021116639,0.06822052,77.66993447,12.84288947,6.13
152145285066,-0.33134001,-0.5476273,9.852188,-0.0011535644,0.07065125,0.04563751,77.66996702,12.84293367,6.1
152145285088,-0.19235381,-0.53410035,9.968427,0.02052765,0.05419464,-0.025956726,77.66996702,12.84293367,6.1
152145285110,-0.39334565,-0.6330978,9.745046,0.0025222779,0.04273987,-0.021321107,77.66996702,12.84293367,6.1
152145285132,-0.06868897,-0.4781952,9.758095,-0.022779847,0.024580384,-0.05365143,77.66996702,12.84293367,6.1
152145285154,-0.34713897,-0.4172638,9.829801,0.036294557,-0.031246949,-0.07181396,77.66996702,12.84293367,6.1
152145285176,-0.49665985,-0.46012115,9.879721,0.0075286864,-0.04738922,-0.020629883,77.67001999,12.84298209,6.29
152145285198,-0.30871278,-0.5259598,9.79664,0.009877014,-0.035188295,-0.010775757,77.67001999,12.84298209,6.29
152145285220,-0.38305053,-0.42480317,9.642815,-0.0031219483,-0.069755554,-0.023240661,77.67001999,12.84298209,6.29
152145285242,-0.5097092,-0.3975113,9.675496,-0.02128601,-0.06336518,0.023957824,77.67001999,12.84298209,6.29
152145285264,-0.77510375,-0.43306884,9.638983,0.035871886,0.021966552,0.09538269,77.67005557,12.84303103,5.03
152145285286,-0.13536835,-0.6292694,9.949511,-0.013191223,0.103782654,0.06795502,77.67005557,12.84303103,5.03
152145285308,0.025880432,-0.3474701,9.943525,0.026600648,0.06260834,-0.05972748,77.67005557,12.84303103,5.03
152145285331,-0.26633605,-0.3869751,9.884268,0.04359131,-0.02240448,-0.074157715,77.67005557,12.84303103,5.03
152145285352,-0.48779908,-0.18179321,9.877446,-0.0028579712,-0.07961426,-0.046195984,77.67005557,12.84303103,5.03
152145285374,-0.5982925,-0.3592041,9.782756,0.008595276,-0.051916502,0.029071044,77.67010929,12.84306878,6.02
152145285396,-0.5729126,-0.4589203,9.782994,-0.00983429,0.032037355,0.076582335,77.67010929,12.84306878,6.02
152145285418,-0.27830657,-0.3586029,9.992605,-0.0053085326,0.08348999,0.029655457,77.67010929,12.84306878,6.02
152145285441,-0.091078185,-0.5275162,9.713323,-0.0036575317,0.06681518,-0.053494263,77.67010929,12.84306878,6.02
152145285462,0.01582489,-0.52464294,9.80897,-0.0020065308,-0.018035889,-0.11799469,77.6701564,12.84310116,5.52
152145285484,-0.39921418,-0.61418456,9.684591,0.027186584,-0.102940366,-0.08800659,77.6701564,12.84310116,5.52
152145285506,-0.7895889,-0.37201232,9.506345,-0.015322876,-0.063475035,0.049736023,77.6701564,12.84310116,5.52
152145285529,-0.2897995,-0.14683685,10.117943,0.040448,0.010942077,0.049311828,77.6701564,12.84310116,5.52
152145285551,-0.4395523,-0.11224365,9.765274,0.027720641,0.006732178,0.0071273805,77.6701564,12.84310116,5.52
152145285572,-0.57722014,-0.05705414,9.367241,-0.041262817,0.044499207,0.04963074,77.67020388,12.84314538,5.5
152145285595,-0.18145904,0.06672821,10.079758,-0.0010986328,0.0854599,0.0053665163,77.67020388,12.84314538,5.5
152145285617,-0.008238221,-0.036701966,9.820581,0.0325119,0.03549652,-0.09221649,77.67020388,12.84314538,5.5
152145285639,-0.26322022,-0.032273866,9.641975,-0.08067627,-0.07226105,-0.1190094,77.67020388,12.84314538,5.5
152145285661,-0.45260316,-0.030116271,9.8782835,0.071717836,-0.12834778,-0.051304627,77.67023729,12.84318202,5.59
152145285683,-0.84669036,-0.060523987,9.59313,0.017599488,-0.08035584,0.07040405,77.67023729,12.84318202,5.59
152145285705,-0.7099823,0.07690277,9.648199,-0.03604126,0.04130249,0.12776795,77.67023729,12.84318202,5.59
152145285727,-0.033377074,-0.22297058,9.670108,-0.013882446,0.11267547,0.04436035,77.67023729,12.84318202,5.59
152145285749,0.037728883,-0.12193451,9.9531,0.0235672,0.051477052,-0.062174987,77.67023729,12.84318202,5.59
152145285771,-0.3757492,-0.24092865,9.865952,-0.009407043,-0.0026428222,-0.067129515,77.67029841,12.84324233,6.11
152145285793,-0.28177795,-0.19855042,9.600797,0.005029297,-0.022833252,-0.04182892,77.67029841,12.84324233,6.11
152145285815,-0.46050566,-0.27887422,9.89552,-0.02496643,-0.030392457,-0.032557677,77.67029841,12.84324233,6.11
152145285837,-0.2830963,-0.40792543,9.627492,-0.03529663,0.012164307,0.017672729,77.67029841,12.84324233,6.11
152145285859,-0.22024688,-0.43533784,9.618872,0.023780823,0.021490479,-0.0254776,77.67029841,12.84324233,6.11
152145285881,-0.27938384,-0.3437561,9.715956,-0.022567749,0.025642395,-0.033891298,77.67032259,12.84327376,5.45
152145285903,-0.13321838,-0.4008606,9.674416,-0.017082214,9.796142E-4,-0.07357635,77.67032259,12.84327376,5.45
152145285925,0.03114624,-0.52416384,9.690821,-0.009410095,-0.08163452,-0.106062315,77.67032259,12.84327376,5.45
152145285947,-0.40867004,-0.5159027,9.69309,-0.0056243897,-0.13409881,-0.045713805,77.67032259,12.84327376,5.45
152145285969,-0.6792175,-0.38075104,9.52957,0.017332459,-0.077215575,0.08132019,77.67037254,12.84330461,5.83
152145285991,-0.42758483,-0.3179016,9.927724,-0.018948365,0.006150818,0.101774596,77.67037254,12.84330461,5.83
152145286013,-0.25640106,-0.45054474,9.703028,0.0013473511,0.036564637,0.05900879,77.67037254,12.84330461,5.83
152145286035,-0.13297729,-0.5141083,9.6924925,-0.017453004,0.037359618,0.018634032,77.67037254,12.84330461,5.83
152145286057,-0.17667541,-0.60568696,9.55997,-0.010688782,0.03214264,0.008297729,77.67037254,12.84330461,5.83
152145286079,-0.21353912,-0.44910583,9.519989,-0.021235656,0.021650696,0.003982544,77.67041551,12.84333647,5.58
152145286101,-0.32954255,-0.21100159,9.635992,0.0151474,0.004658508,-0.023136903,77.67041551,12.84333647,5.58
152145286123,-0.29351348,-0.2947998,9.971296,-0.0025894165,0.0019943237,0.005686951,77.67041551,12.84333647,5.58
152145286146,-0.29698333,-0.43952942,9.44182,-0.022460938,0.007054138,3.097534E-4,77.67041551,12.84333647,5.58
152145286167,-0.18098144,-0.18358307,10.44978,0.015948486,0.01743927,-0.0077926638,77.67046371,12.84336855,5.8
152145286189,-0.34630433,-0.4367752,9.96651,0.041888427,0.0069992067,-0.022013854,77.67046371,12.84336855,5.8
152145286212,-0.17870483,-0.25876465,9.783592,-0.022566224,-0.009194946,-0.021427918,77.67046371,12.84336855,5.8
152145286234,-0.15763855,-0.424205,9.986623,0.043115236,-0.042167664,-0.0463562,77.67046371,12.84336855,5.8
152145286256,-0.4261505,-0.37847596,9.59433,-0.03423462,-0.067144774,-0.0052871704,77.67046371,12.84336855,5.8
152145286278,-0.47714537,-0.3963135,9.789099,0.013496399,-0.019476319,0.058314513,77.67050865,12.84340317,6.34
152145286300,-0.39226836,-0.35177612,9.677292,-0.012338256,0.03592224,0.05618286,77.67050865,12.84340317,6.34
152145286322,-0.20695801,-0.28953093,9.808012,0.0032180785,0.051103212,0.026034545,77.67050865,12.84340317,6.34
152145286344,-0.2623825,-0.21603088,9.829802,0.01376648,0.04045105,-0.0128005985,77.67050865,12.84340317,6.34
152145286366,-0.28692627,-0.19567871,9.917666,0.012594605,0.02713623,-0.02121582,77.67055253,12.84344041,6.42
152145286388,-0.353125,-0.15390015,9.910487,0.0076934816,0.034913637,-0.018499756,77.67055253,12.84344041,6.42
152145286410,-0.18205567,-0.22297363,9.722063,0.005239868,0.025006104,-0.04299774,77.67055253,12.84344041,6.42
152145286432,-0.12483521,-0.2791168,9.918144,0.0221817,-0.033647157,-0.07959137,77.67055253,12.84344041,6.42
152145286454,-0.34989166,-0.18957368,9.9947605,0.030436706,-0.07172851,-0.048913576,77.67055253,12.84344041,6.42
152145286476,-0.47486877,-0.21363525,9.864756,0.0040679933,-0.08158264,-0.0017181396,77.67059442,12.84347769,6.56
152145286498,-0.61158144,-0.16311494,9.615761,-0.009780884,-0.038012695,0.05415802,77.67059442,12.84347769,6.56
152145286520,-0.58284605,-0.14911194,9.750313,-0.022033691,0.053926088,0.083294675,77.67059442,12.84347769,6.56
152145286542,-0.16769257,-0.18729858,9.966513,-0.035348512,0.13099822,0.031681824,77.67059442,12.84347769,6.56
152145286564,-0.030026246,-0.30677336,9.661609,0.006518555,0.08087921,-0.07485352,77.67064675,12.84351144,6.71
152145286586,-0.3021286,-0.24571534,9.701355,7.324219E-5,-0.0012039185,-0.085717775,77.67064675,12.84351144,6.71
152145286608,-0.45835266,-0.30509034,9.8146,-0.004776001,-0.0046157837,-0.038258363,77.67064675,12.84351144,6.71
152145286630,-0.29542542,-0.26032105,9.710449,-0.0011001587,0.0139251705,-0.04294586,77.67064675,12.84351144,6.71
152145286652,-0.38269502,-0.43067017,9.4071045,-0.026507568,-4.043579E-4,-0.0564209,77.67064675,12.84351144,6.71
152145286674,-0.45140687,-0.22871856,9.613246,0.001725769,0.003909302,-0.047045898,77.67069246,12.84355,6.61
152145286696,-0.3787445,-0.30736846,9.943646,0.003855896,0.00721283,-0.05242462,77.67069246,12.84355,6.61
152145286718,-0.20611878,-0.20753174,9.699797,5.0048827E-4,-0.032099914,-0.08870087,77.67069246,12.84355,6.61
152145286740,-0.5377213,-0.29036865,9.718593,-0.0039230348,-0.07897492,-0.060792543,77.67069246,12.84355,6.61
152145286762,-0.35982817,-0.6881653,9.538907,-0.019158935,-0.062458802,-0.013916016,77.67075201,12.8435868,7.25
152145286784,-0.36665344,-0.8676163,9.647122,-0.012713623,-0.053300478,-0.009020996,77.67075201,12.8435868,7.25
152145286806,-0.49115294,-0.8405609,9.798078,-0.00973053,-0.024588013,0.023640443,77.67075201,12.8435868,7.25
152145286828,-0.39861602,-0.87479705,9.799515,0.013070678,0.020422364,0.027844239,77.67075201,12.8435868,7.25
152145286851,-0.15009308,-0.827391,9.783114,-0.015213013,0.024952698,-0.014660644,77.67075201,12.8435868,7.25
152145286872,-0.036849976,-0.7510147,9.79377,0.007905578,-0.015745545,-0.042785645,77.6708185,12.84362008,6.13
152145286895,-0.30739442,-0.7182144,9.80909,0.009980774,-0.07870941,-0.03336029,77.6708185,12.84362008,6.13
152145286917,-0.5049194,-0.7106735,9.635393,0.0059890747,-0.067092896,0.034503173,77.6708185,12.84362008,6.13
152145286939,-0.37144166,-0.70780027,10.122371,0.014511108,-0.016545106,0.06251983,77.6708185,12.84362008,6.13
152145286961,-0.07216187,-0.64148253,9.72218,-0.022195434,-0.019476319,0.016342163,77.6708185,12.84362008,6.13
152145286983,-0.4778641,-0.7137848,9.721585,-0.002165222,-0.023789978,0.041804504,77.67087053,12.84365695,6.53
152145287005,-0.36342317,-0.66733706,9.716077,-0.009355163,0.03406067,0.07466583,77.67087053,12.84365695,6.53
152145287027,-0.060432434,-0.6064041,9.691774,0.018450927,0.028999329,0.0071762083,77.67087053,12.84365695,6.53
152145287049,-0.065820314,-0.5904846,9.810287,-0.009999084,-0.023789978,-0.0070480346,77.67087053,12.84365695,6.53
152145287071,-0.50288236,-0.6526123,9.804781,0.014352417,-0.026560973,0.03828583,77.67091116,12.84368332,5.82
152145287093,-0.303804,-0.7139023,9.661609,0.020899963,0.052168272,0.082653806,77.67091116,12.84368332,5.82
152145287115,-8.163452E-4,-0.59000397,10.000864,-0.051220704,0.045030214,-0.009173584,77.67091116,12.84368332,5.82
152145287137,-0.1976181,-0.63872683,9.815796,0.05376587,0.0013549805,-0.02143097,77.67091116,12.84368332,5.82
152145287159,-0.2438324,-0.80320895,9.591339,-0.051220704,-0.027677918,-3.3569336E-4,77.67091116,12.84368332,5.82
152145287181,-0.19091949,-0.58234406,9.63551,-0.0051971436,1.8157958E-4,0.017248536,77.67093457,12.84372353,5.34
152145287203,-0.34151155,-0.66589814,10.0047,-0.009623718,-0.007913208,0.0014236451,77.67093457,12.84372353,5.34
152145287225,-0.50395966,-0.77699125,9.507182,0.019093323,0.038960267,0.05516968,77.67093457,12.84372353,5.34
152145287247,-0.16817017,-0.6635071,9.8019085,-0.026504517,0.06058655,-0.0029418946,77.67093457,12.84372353,5.34
152145287269,-0.04259796,-0.6739212,9.847041,0.012644959,0.02079773,-0.051843263,77.67097466,12.84375163,5.34
152145287291,-0.21210328,-0.7018158,9.859129,2.8533937E-4,-0.03561554,-0.05354614,77.67097466,12.84375163,5.34
152145287313,-0.21928558,-0.58414,9.541179,-0.0056793215,-0.070077516,-0.024040222,77.67097466,12.84375163,5.34
152145287335,-0.2963791,-0.728508,9.840094,-0.021981811,-0.07433929,0.008618164,77.67097466,12.84375163,5.34
152145287357,-0.46649018,-0.49998322,10.043124,0.037361145,-0.06544342,0.039404295,77.67097466,12.84375163,5.34
152145287379,-0.63660127,-0.9067581,9.523222,-0.073216245,-0.011859131,0.08606567,77.67105893,12.84381396,6.36
152145287401,-0.34713897,-0.49004364,9.174269,-0.024749756,0.11528625,0.10278778,77.67105893,12.84381396,6.36
152145287423,-0.13489227,-0.68840635,10.168577,-0.005627441,0.11981354,-0.020095825,77.67105893,12.84381396,6.36
152145287445,0.12883301,-0.6828979,9.88822,-0.007595825,0.05072937,-0.06121521,77.67105893,12.84381396,6.36
152145287467,-0.23173828,-0.8872467,9.695368,0.029957581,-0.04232483,-0.08662262,77.67109778,12.84385362,6.03
152145287489,-0.39430237,-0.7051651,8.98393,-0.039344788,-0.07449798,-0.018496703,77.67109778,12.84385362,6.03
152145287511,-0.44937286,-0.5199753,10.492517,-0.013987732,-0.030604552,0.014315796,77.67109778,12.84385362,6.03
152145287533,-0.37479097,-1.2377579,9.613482,0.02116394,0.012059021,0.029022217,77.67109778,12.84385362,6.03
152145287555,-0.20084992,-0.50812227,9.493774,0.01275177,0.03267517,0.0030776977,77.67109778,12.84385362,6.03
152145287577,-0.30476227,-0.84714353,10.2050905,0.028947448,0.0033218383,-0.03197174,77.67114189,12.843882,5.73
152145287599,-0.27279967,-0.7529327,9.841772,0.0059310915,0.0075881956,-0.0063537597,77.67114189,12.843882,5.73
152145287622,-0.2529297,-0.7894424,9.912401,0.024523925,0.013658142,-0.014077758,77.67114189,12.843882,5.73
152145287644,-0.23700866,-0.69223785,9.796046,0.0037994385,-0.0017379761,-0.028082276,77.67114189,12.843882,5.73
152145287666,-0.3052414,-0.7309036,9.801549,0.006037903,-0.025550842,-0.026541138,77.67119521,12.84392348,7.19
152145287688,-0.3791031,-0.7258774,9.881636,0.01360321,-0.018730164,-0.005291748,77.67119521,12.84392348,7.19
152145287710,-0.3208069,-0.7185715,9.793048,-0.003604126,-0.016281128,-6.546021E-4,77.67119521,12.84392348,7.19
152145287732,-0.39371032,-0.7710098,9.689862,0.0068374635,0.005244446,0.010961914,77.67119521,12.84392348,7.19
152145287754,-0.3237976,-0.706958,9.903305,0.010676575,0.018292237,0.0030776977,77.67119521,12.84392348,7.19
152145287776,-0.31601563,-0.665181,9.829684,0.0072662355,0.024206543,-0.0097671505,77.67126116,12.84396336,7.75
152145287798,-0.30272523,-0.7191757,9.786707,0.0033218383,0.014775085,-0.016473388,77.67126116,12.84396336,7.75
152145287820,-0.27495423,-0.7492218,9.865953,0.008595276,-0.0031219483,-0.029310608,77.67126116,12.84396336,7.75
152145287842,-0.31266174,-0.6872101,9.910246,0.020368958,-0.019262696,-0.020205688,77.67126116,12.84396336,7.75
152145287864,-0.35432282,-0.76681674,9.798795,-0.0021087646,-0.037002563,-0.011151123,77.67131824,12.84399541,6.74
152145287886,-0.39969176,-0.7329437,9.745885,0.0022583008,-0.04653473,5.7067873E-4,77.67131824,12.84399541,6.74
152145287908,-0.4878006,-0.7135483,9.839734,-0.00546875,-0.024058532,0.027684022,77.67131824,12.84399541,6.74
152145287930,-0.4300995,-0.70085907,9.725774,0.004388428,0.010035706,0.03296051,77.67131824,12.84399541,6.74
152145287952,-0.29231414,-0.6981033,9.657896,6.6223147E-4,0.030438233,0.014744568,77.67131824,12.84399541,6.74
152145287974,-0.21175079,-0.69403076,9.78874,-0.008026123,0.025271606,-0.0076324465,77.67138318,12.84403096,7.46
152145287996,-0.13022462,-0.69630736,9.814598,-0.008024598,-0.031034851,-0.045291137,77.67138318,12.84403096,7.46
152145288018,-0.4664917,-0.65033567,9.68543,-0.010527039,-0.066027835,-0.0029449463,77.67138318,12.84403096,7.46
152145288040,-0.47020262,-0.692952,9.707814,-9.96399E-4,-0.038441468,0.03791199,77.67138318,12.84403096,7.46
152145288062,-0.3579132,-0.74108124,9.736308,-0.0025924682,-0.0030700683,0.045794677,77.67143646,12.84407375,7.39
152145288084,-0.29734343,-0.69857943,9.811125,-0.014149475,0.0010894776,0.02603302,77.67143646,12.84407375,7.39
152145288106,-0.35049438,-0.84092104,9.578886,-0.0072265626,0.0054031373,0.029975891,77.67143646,12.84407375,7.39
152145288128,-0.3489334,-1.1192459,9.655026,-0.025283813,0.02324829,0.038713075,77.67143646,12.84407375,7.39
152145288150,-0.2744751,-1.0702851,9.638743,-0.009944153,0.049717713,0.022894287,77.67143646,12.84407375,7.39
152145288172,-0.11980744,-1.0886002,9.665077,-0.020170594,0.034913637,-0.018017579,77.67149503,12.84411633,7.48
152145288194,-0.22455749,-1.0773484,9.6939335,-0.006640625,0.0024719238,-0.028619384,77.67149503,12.84411633,7.48
152145288216,-0.22527465,-1.1218796,9.723742,-0.009518432,-0.027412415,-0.029737854,77.67149503,12.84411633,7.48
152145288238,-0.3935852,-1.1399552,9.595408,-0.008612061,-0.044776917,-0.0048629763,77.67149503,12.84411633,7.48
152145288261,-0.4674484,-1.1021302,9.639343,-0.012019348,-0.02261963,0.03237305,77.67149503,12.84411633,7.48
152145288283,-0.47619018,-1.1156555,9.653232,-0.016175842,0.02857666,0.042762756,77.67155937,12.84416108,7.09
152145288305,-0.27256164,-1.1543229,9.663524,-0.026135255,0.060055543,0.021774292,77.67155937,12.84416108,7.09
152145288327,-0.14375153,-1.1767075,9.713205,-0.0077041625,0.028894043,-0.041986085,77.67155937,12.84416108,7.09
152145288349,-0.3193695,-1.2214768,9.607738,-0.016227722,0.0044433596,-0.02669983,77.67155937,12.84416108,7.09
152145288371,-0.35084838,-1.3052765,9.769705,0.0030029297,-0.019903565,-0.037139893,77.67161839,12.84419615,6.94
152145288393,-0.37958068,-1.6363922,9.739779,-0.010314941,0.00332489,0.0072875977,77.67161839,12.84419615,6.94
152145288415,-0.23209992,-1.7132492,9.702429,-0.0024856566,0.021328736,-0.014556885,77.67161839,12.84419615,6.94
152145288437,-0.29650268,-1.7740616,9.731519,-0.005630493,-0.0059448243,-0.03916321,77.67161839,12.84419615,6.94
152145288459,-0.28345641,-1.7963257,9.66173,0.009823608,-5.126953E-4,-0.0207901,77.67161839,12.84419615,6.94
152145288481,-0.22168274,-1.8294876,9.864876,0.030758668,-0.0063720704,-0.034477234,77.6716584,12.84424237,6.51
152145288503,-0.3397171,-1.8123672,9.877086,0.025856018,-0.02427063,-0.026966859,77.6716584,12.84424237,6.51
152145288525,-0.36294097,-1.7094162,10.058565,0.042636108,-0.019210815,-0.011572266,77.6716584,12.84424237,6.51
152145288547,-0.22252198,-1.5547516,10.291524,0.10244904,-0.014950561,-0.003048706,77.6716584,12.84424237,6.51
152145288569,-0.27794647,-1.0148575,10.900371,0.13467407,-0.029649353,-0.02004242,77.67170527,12.84427597,4.63
152145288591,-0.14267273,-1.491423,8.494673,-0.035240173,-0.08110352,-0.028990174,77.67170527,12.84427597,4.63
152145288613,-0.32523498,-0.7344955,8.985248,-0.20792237,-0.08978424,0.017033387,77.67170527,12.84427597,4.63
152145288635,-0.36390075,-1.6320877,7.8323197,-0.30960235,-0.07615204,0.057781983,77.67170527,12.84427597,4.63
152145288657,-0.5178467,-0.34483796,10.308881,0.095896915,0.06873169,0.14411926,77.67170527,12.84427597,4.63
152145288679,0.17683259,-1.4631714,11.749829,0.25233,0.09424591,0.01820221,77.67173166,12.84428657,4.38
152145288701,-0.09646301,-0.4837036,8.837047,-0.035348512,0.032943726,-0.023080444,77.67173166,12.84428657,4.38
152145288723,0.023486327,-0.6014999,10.076283,0.06186371,-0.022991944,-0.06926117,77.67173166,12.84428657,4.38
152145288745,-0.48540497,-0.44575197,9.65311,0.03155365,-0.099264525,-0.019880677,77.67173166,12.84428657,4.38
152145288767,-0.54861295,-0.63632965,9.921738,-0.006211853,-0.03742676,0.08137512,77.6717692,12.84431111,4.47
152145288789,-0.5809372,-0.35680693,9.720149,0.0051864623,0.070065305,0.1281952,77.6717692,12.84431111,4.47
152145288811,-0.2461029,-0.34196472,9.959088,-0.011857605,0.12136078,0.03530426,77.6717692,12.84431111,4.47
152145288833,0.10859986,-0.40373534,9.869303,-0.01676178,0.10346375,-0.052856445,77.6717692,12.84431111,4.47
152145288856,-0.0015350342,-0.5053711,10.1353,0.0042251586,-0.010472107,-0.14270934,77.6717692,12.84431111,4.47
152145288877,-0.26441652,-0.6013733,9.544413,0.059413146,-0.10256805,-0.08411865,77.67180898,12.84433802,4.73
152145288900,-0.601886,-0.5639084,9.647125,-0.008023071,-0.105070494,0.018310547,77.67180898,12.84433802,4.73
152145288921,-0.6054764,-0.4346222,9.710211,5.523682E-4,-0.012921142,0.07977448,77.67180898,12.84433802,4.73
152145288944,-0.37862396,-0.76094973,9.632876,-0.013247681,0.070170596,0.07524872,77.67180898,12.84433802,4.73
152145288966,-0.08114471,-0.66590273,9.770426,-0.0074905395,0.08471222,-0.0016113281,77.6718379,12.84436553,4.8
152145288988,-0.22204132,-0.89335024,9.7992735,0.0011917114,0.061598204,-0.048060607,77.6718379,12.84436553,4.8
152145289010,0.021330262,-0.98696744,9.881994,0.005935669,0.009716797,-0.07911377,77.6718379,12.84436553,4.8
152145289032,-0.14459229,-1.0975784,9.8881,0.015577698,-0.101451114,-0.12060394,77.6718379,12.84436553,4.8
152145289054,-0.6130158,-1.1208038,9.867987,0.01611023,-0.13292694,-0.0050186156,77.6718379,12.84436553,4.8
152145289076,-0.6324112,-1.1782653,9.547763,-0.0015289306,-0.065281674,0.08915405,77.67187826,12.84439914,5.28
152145289098,-0.4091507,-1.0137832,9.750437,0.043911744,0.0051376345,0.09325256,77.67187826,12.84439914,5.28
152145289120,-0.30787507,-1.2685257,9.844046,-0.040783692,0.034646608,0.056129456,77.67187826,12.84439914,5.28
152145289142,-0.085450746,-1.3551956,9.565123,-0.025602723,0.06820373,0.04611664,77.67187826,12.84439914,5.28
152145289164,-0.19438934,-1.678891,9.7308,0.0010314941,0.07757721,-8.666992E-4,77.67191053,12.84442491,4.69
152145289186,0.03821106,-1.6551911,9.77964,0.009288025,0.04929199,-0.05914154,77.67191053,12.84442491,4.69
152145289208,-0.117053226,-1.8127273,9.866194,-0.007971192,0.012379455,-0.08172302,77.67191053,12.84442491,4.69
152145289230,-0.23497315,-1.6737442,9.603551,-0.0063186646,0.024153138,-0.041082762,77.67191053,12.84442491,4.69
152145289252,0.049821474,-1.5221894,9.929522,-1.953125E-4,0.003642273,-0.11490478,77.67191053,12.84442491,4.69
152145289274,-0.30835265,-1.528897,9.701233,0.0240448,-0.021072388,-0.0939209,77.67195598,12.84445718,3.97
152145289296,-0.11837158,-1.7198318,9.708418,0.009822083,-0.023362732,-0.089337155,77.67195598,12.84445718,3.97
152145289322,-0.12770995,-1.5509201,9.836268,0.009822083,-0.014414978,-0.06749878,77.67195598,12.84445718,3.97
152145289344,-0.473555,-1.3457367,9.6478405,0.02010193,0.014511108,-0.040605165,77.67195598,12.84445718,3.97
152145289366,-0.1347702,-1.3827301,9.573141,-0.02474823,0.051475525,-0.020521546,77.67197959,12.84447388,3.15
152145289388,0.011277771,-1.3946991,9.878046,0.013233948,0.0645813,-0.098342896,77.67197959,12.84447388,3.15
152145289410,0.15780182,-0.96254426,9.959328,0.052224733,0.030915832,-0.18563995,77.67197959,12.84447388,3.15
152145289432,-0.12818757,-1.0513672,10.146912,0.058399964,-0.0082901,-0.20364532,77.67197959,12.84447388,3.15
152145289454,-0.007762146,-1.2029221,9.631081,0.0037506104,-0.020224,-0.1628952,77.67197959,12.84447388,3.15
152145289476,-0.191156,-0.81745607,9.943286,-0.0074935914,-0.06847992,-0.20305634,77.67203458,12.84450293,3.69
152145289498,-0.37455446,-0.5572052,9.698721,0.040132143,-0.10757446,-0.130513,77.67203458,12.84450293,3.69
152145289520,-0.59290314,-0.6263992,9.505626,-0.034335326,-0.104112245,-0.010453796,77.67203458,12.84450293,3.69
152145289542,-0.38449097,-0.59539187,9.531123,-0.06331177,-0.04525604,0.06278839,77.67203458,12.84450293,3.69
152145289564,-0.29913482,-0.65153503,9.978483,0.0042266846,0.034111023,0.09644928,77.67206398,12.84452159,3.44
152145289586,0.1963501,-0.8994583,9.519751,0.049450684,0.062503055,0.021774292,77.67206398,12.84452159,3.44
152145289608,-0.25556183,-1.0962616,10.138769,-0.07769318,0.086523436,-0.010990906,77.67206398,12.84452159,3.44
152145289630,0.44008178,-1.0065979,9.299128,0.009234619,0.06473999,-0.11900482,77.67206398,12.84452159,3.44
152145289653,0.09866486,-1.3773407,10.124166,0.016908264,0.010887146,-0.2069397,77.67206398,12.84452159,3.44
152145289674,0.09232025,-1.3675263,9.398369,0.028894043,-0.039289854,-0.19629058,77.67210252,12.8445361,3.43
152145289696,-0.24921569,-1.414334,9.994286,-3.5400392E-4,-0.07263031,-0.15474701,77.67210252,12.8445361,3.43
152145289718,-0.14123993,-1.404396,9.523344,-0.01990204,-0.0774826,-0.04326477,77.67210252,12.8445361,3.43
152145289740,-0.28488922,-1.5479294,9.861763,9.780884E-4,-0.07273865,-0.028190613,77.67210252,12.8445361,3.43
152145289763,-0.3931076,-1.4181626,9.724454,0.0033233643,-0.02229767,0.098954774,77.67210252,12.8445361,3.43
152145289784,-0.1641037,-1.3334076,9.946159,-0.011329651,0.033366393,0.12840882,77.67214268,12.84453756,2.62
152145289807,-0.0888031,-1.4819657,9.925568,0.01461792,0.07895966,0.097995,77.67214268,12.84453756,2.62
152145289829,0.51729584,-1.5691178,9.482523,0.028997803,0.044711303,-0.0550354,77.67214268,12.84453756,2.62
152145289851,0.23824462,-1.7286911,9.865596,0.029794311,-0.0038116456,-0.1996994,77.67214268,12.84453756,2.62
152145289872,0.13410035,-2.013002,9.783711,-0.02229767,-0.045576476,-0.18446656,77.67216358,12.84454082,2.07
152145289895,-0.2695694,-1.8226639,9.689502,0.028733825,-0.042536926,-0.10478668,77.67216358,12.84454082,2.07
152145289917,-0.04522705,-2.0377822,9.815674,0.005610657,-0.039505005,-0.0034759522,77.67216358,12.84454082,2.07
152145289939,-0.08185883,-1.886348,9.633476,0.019889832,-0.04749451,-0.008963013,77.67216358,12.84454082,2.07
152145289961,-0.42291564,-1.3244308,9.805142,-0.01382904,-0.0037628175,0.12547913,77.67216358,12.84454082,2.07
152145289983,-0.4682892,-0.87096405,9.752586,0.02020874,0.013446045,0.23376313,77.67218276,12.84454675,0.93
152145290005,-0.70292205,-0.85037535,9.736786,0.010517883,0.03517761,0.34779817,77.67218276,12.84454675,0.93
152145290027,-0.2493393,-0.9772705,9.8530245,-0.0039764405,0.0648468,0.35440674,77.67218276,12.84454675,0.93
152145290049,-0.025953675,-0.77950746,9.698237,-0.00499115,0.06404571,0.22327118,77.67218276,12.84454675,0.93
152145290071,-0.030984497,-0.84499204,9.841533,-0.0025939941,0.10729675,0.10449219,77.67218765,12.84455171,0.98
152145290093,0.4837738,-0.82547915,9.934908,0.008384705,0.0352829,-0.20241699,77.67218765,12.84455171,0.98
152145290115,-0.08592987,-0.9244782,9.311816,0.024206543,0.031712342,-0.41701356,77.67218765,12.84455171,0.98
152145290137,0.21298523,-1.1989715,10.245552,0.040611267,0.001246643,-0.43837586,77.67218765,12.84455171,0.98
152145290159,-0.06988831,-1.1088302,9.038518,-0.029917907,-0.13058472,-0.592041,77.67218765,12.84455171,0.98
152145290181,-0.64162904,-0.68672943,10.889833,-0.02666626,-0.051646423,-0.45366058,77.67220415,12.84455179,1.07
152145290207,-0.031938173,-0.744075,8.781262,-0.023312379,7.1105955E-4,-0.2505142,77.67220415,12.84455179,1.07
152145290229,-0.16410217,-0.08267212,10.155652,0.031182861,0.036613464,-0.23171234,77.67220415,12.84455179,1.07
152145290251,-0.1369278,1.2074448,9.502396,0.06697388,0.014454651,-0.26660004,77.67220415,12.84455179,1.07
152145290273,-0.032417297,-0.9104706,9.588107,0.09408264,0.008863831,-0.21509552,77.67222099,12.84455282,1.52
152145290295,-0.26549682,1.0148315,10.019302,-0.0044540404,8.19397E-4,-0.20513305,77.67222099,12.84455282,1.52
152145290317,-0.52945554,0.51001585,9.897679,0.041036986,0.05706787,-0.073358156,77.67222099,12.84455282,1.52
152145290340,-0.1625412,-0.46047515,9.577212,-0.049671937,0.035336304,-0.03730011,77.67222099,12.84455282,1.52
152145290362,-0.34318846,0.2247406,9.525139,-0.008503723,-0.008929444,-0.09354858,77.67222099,12.84455282,1.52
152145290384,0.011631775,-0.97427523,10.137456,-0.016758729,-0.03854828,-0.13061829,77.67223835,12.84455126,1.91
152145290406,-0.48241425,-0.63956755,9.321989,0.02260437,-0.03097992,-0.08550568,77.67223835,12.84455126,1.91
152145290428,-0.26621398,-0.89179385,10.371129,0.02319336,-0.050050355,-0.032080077,77.67223835,12.84455126,1.91
152145290450,-0.54693604,-0.902211,9.4970045,-0.03896942,-0.0041854857,0.04196167,77.67223835,12.84455126,1.91
152145290472,-0.31517792,-0.821286,9.789457,0.02308197,0.054141235,0.108595274,77.67225473,12.84454742,1.8
152145290494,-0.45787352,-0.7228836,10.045401,-0.013772583,0.1048996,0.062734984,77.67225473,12.84454742,1.8
152145290516,-0.15991059,-0.8603104,10.023013,0.01796875,0.16013184,0.0015289306,77.67225473,12.84454742,1.8
152145290538,0.68357086,-0.3833847,9.400522,0.0116851805,0.10740356,-0.2753876,77.67225473,12.84454742,1.8
152145290560,0.11231079,-0.5157852,10.724752,0.05024872,0.04183502,-0.4879074,77.67225473,12.84454742,1.8
152145290582,-0.566806,-0.32317048,9.397768,0.059835814,0.03197937,-0.42809448,77.67226919,12.84453984,1.95
152145290604,-0.18229675,-0.26869965,9.611812,0.05845337,-0.056282043,-0.43384704,77.67226919,12.84453984,1.95
152145290626,-0.8842789,-0.102062985,9.806697,0.0051879883,-0.090745546,-0.33509827,77.67226919,12.84453984,1.95
152145290648,-0.9465271,-0.050827026,10.023972,0.022177124,-0.033909608,-0.12705383,77.67226919,12.84453984,1.95
152145290670,-0.7743851,-0.1106842,9.532916,-0.02672119,0.02910309,0.0050476072,77.67226919,12.84453984,1.95
152145290692,-0.27519074,-0.21794586,9.968666,0.044549562,0.10127716,-0.076127626,77.6722848,12.84452804,2.42
152145290702,-0.27554932,0.055233765,9.596606,0.033686828,0.11805725,-0.18435974,77.6722848,12.84452804,2.42
152145290724,0.12595825,-0.21614838,10.526991,0.01637268,0.07853546,-0.318956,77.6722848,12.84452804,2.42
152145290746,0.017739868,-0.21447448,9.8983965,0.04929199,-0.022883605,-0.4318741,77.6722848,12.84452804,2.42
152145290768,-0.578656,0.100486755,9.46253,0.08695068,-0.08163605,-0.3633255,77.67230109,12.84450854,3.04
152145290790,-0.11142731,-0.008334351,10.193601,0.053286742,-0.13995819,-0.24934235,77.67230109,12.84450854,3.04
152145290812,-0.61864316,-0.3241272,9.479045,0.051527403,-0.16531067,-0.15016632,77.67230109,12.84450854,3.04
152145290834,-0.75175935,-1.2476944,9.91156,-0.062304687,-0.0963913,0.037643433,77.67230109,12.84450854,3.04
152145290856,-0.2348526,-0.7730438,9.240349,-0.017027283,-0.056230165,0.051977538,77.67230109,12.84450854,3.04
152145290878,-0.30715638,-1.2541565,9.754384,0.0098724365,0.0017272949,0.06652069,77.67231792,12.84448154,3.73
152145290900,0.2132248,-1.3350799,9.877565,-0.011593628,-0.018356323,-0.009228515,77.67231792,12.84448154,3.73
152145290922,0.13625184,-1.9712235,9.688779,0.05302124,-0.09543152,-0.08236084,77.67231792,12.84448154,3.73
152145290944,0.010435486,-2.3165863,9.692256,0.03437805,-0.14459229,-0.009231567,77.67231792,12.84448154,3.73
152145291009,-0.64210665,-2.2666671,9.70123,-0.0030700683,-0.07093048,0.18944702,77.6723325,12.84445158,3.44
152145291031,-0.69010925,-2.534102,9.937899,0.005085754,0.0402359,0.37959594,77.6723325,12.84445158,3.44
152145291053,-0.113105774,-2.6199296,9.797838,-0.020005798,0.12652436,0.44319457,77.6723325,12.84445158,3.44
152145291075,0.41314393,-2.6991806,9.424822,-0.04904022,0.10538025,0.31376344,77.6723325,12.84445158,3.44
152145291097,0.20281525,-2.3758438,10.131712,0.030116271,0.023667907,0.06598358,77.6723325,12.84445158,3.44
152145291119,0.11949615,-2.1487548,9.642576,0.0028427124,-0.011381531,-0.03852539,77.67234341,12.8444297,2.08
152145291141,-0.17751007,-2.279956,9.669512,0.005770874,-0.0038162232,-0.049926758,77.67234341,12.8444297,2.08
152145291163,-0.19642334,-1.2278214,9.72278,0.010566711,-0.05180664,-0.0022506714,77.67234341,12.8444297,2.08
152145291185,0.024562072,-0.5804245,9.802267,0.022981262,-0.10177002,-4.943848E-4,77.67234341,12.8444297,2.08
152145291207,0.22184753,-0.5473892,9.720743,0.0020446777,-0.13985138,-0.0063537597,77.67234797,12.84443118,0.0
152145291229,0.5747528,-0.5463089,9.825132,0.011529541,-0.19231872,-0.0024139404,77.67234797,12.84443118,0.0
152145291251,1.117041,-0.505365,9.66556,0.0027877807,-0.22363281,-0.0035827637,77.67234797,12.84443118,0.0
152145291273,1.7544953,-0.5051254,9.644728,-0.0067993165,-0.1497055,-0.010617065,77.67234797,12.84443118,0.0
152145291296,1.6677094,-0.5352951,9.598761,-0.0016342163,0.009556579,-0.0026779175,77.67234797,12.84443118,0.0
152145291318,1.4580933,-0.5422379,9.857694,0.0024154664,-0.036732484,4.1046142E-4,77.67234763,12.84443559,0.0
152145291340,1.7918441,-0.54846495,9.665561,-5.142212E-4,-0.11562042,-0.008911133,77.67234763,12.84443559,0.0
152145291362,1.8740876,-0.5375717,9.607379,0.04258423,-0.08371277,0.004408264,77.67234763,12.84443559,0.0
152145291384,2.2369277,-0.30976105,9.453672,0.011102295,-0.060595702,0.0013717652,77.67234763,12.84443559,0.0
152145291405,2.208435,-0.42887267,9.4867115,-0.011062622,0.045085143,0.021507263,77.67234735,12.8444375,0.0
152145291428,2.0299516,-0.48142242,9.681722,0.0059844973,-0.009884643,-0.0029434203,77.67234735,12.8444375,0.0
152145291450,2.1873672,-0.39080352,9.516283,-0.004989624,-0.033432007,-0.005395508,77.67234735,12.8444375,0.0
152145291472,2.089685,-0.44479522,9.631203,0.0035888671,0.0188797,0.0036621094,77.67234735,12.8444375,0.0
152145291494,2.1524124,-0.45065767,9.595049,-3.3569337E-5,-0.016334534,-0.008911133,77.67234735,12.8444375,0.0
152145291505,2.1574433,-0.40241393,9.576136,2.1362304E-5,-0.0038650513,-0.0011871338,77.67234692,12.84443843,0.0
152145291527,2.149179,-0.41103363,9.596247,0.0014053344,-0.0018432618,0.0040908814,77.67234692,12.84443843,0.0
152145291549,2.160913,-0.40720367,9.574817,-0.0011001587,8.789062E-4,-0.0050765993,77.67234692,12.84443843,0.0
152145291571,2.1244004,-0.41534424,9.622106,7.659912E-4,-0.0057327272,0.0020126342,77.67234692,12.84443843,0.0
152145291593,2.1483428,-0.4117523,9.5911,4.470825E-4,-2.975464E-4,-0.0010803223,77.67234586,12.84443937,0.0
152145291615,2.1406798,-0.41665953,9.596846,6.072998E-4,-0.0026412965,-2.2888184E-4,77.67234586,12.84443937,0.0
152145291637,2.1433167,-0.41785735,9.592417,-3.5095214E-5,-0.008131409,-7.095337E-4,77.67234586,12.84443937,0.0
152145291659,2.156485,-0.4131897,9.597445,4.4555665E-4,-0.0063171387,-4.4250488E-4,77.67234586,12.84443937,0.0
152145291682,2.1758742,-0.41139525,9.584394,2.8381348E-4,-0.005680847,1.449585E-4,77.67234586,12.84443937,0.0
152145291703,2.1842575,-0.41474456,9.58799,0.0012451172,-0.008552551,-6.0272217E-4,77.67234417,12.84444073,0.0
152145291725,2.1755173,-0.4063614,9.583676,2.8381348E-4,0.004232788,-3.8909912E-4,77.67234417,12.84444073,0.0
