timestamp,accx,accy,accz,gyrx,gyry,gyrz,longitude,latitude,speed
152145600361,0.3215683,-0.048434447,9.810287,-0.0015655517,0.0109268185,-7.8277587E-4,77.6601574,12.84431264,0.0
152145600383,0.3689743,-0.043045044,9.815437,-9.292603E-4,-0.0046325685,-0.010424805,77.6601574,12.84431264,0.0
152145600405,0.23202363,-0.052027892,9.798555,0.0016845703,-0.0086807255,-0.0057357787,77.6601574,12.84431264,0.0
152145600427,0.39913636,-0.08386688,9.844763,0.0053619384,-0.025831604,3.8909912E-4,77.65701181,12.85031487,0.0
152145600450,0.3997391,0.006513977,9.79748,-0.0014602661,0.00885315,0.0019332885,77.65701181,12.85031487,0.0
152145600472,0.41087037,-0.020181274,9.758692,-0.004711914,0.049969483,-0.0057907104,77.65701181,12.85031487,0.0
152145600493,0.21538086,-0.07177582,9.84285,-0.0023635863,0.05145874,-0.006750488,77.65701181,12.85031487,0.0
152145600516,0.07831268,0.012141419,9.8524275,-0.004333496,0.039053343,-0.0025939941,77.65701181,12.85031487,0.0
152145600538,0.092559814,-0.14539948,9.802747,-0.002735901,0.044534303,-3.8146973E-5,77.65700947,12.85032641,0.0
152145600560,0.12189026,0.9196609,9.919225,0.012763977,0.07436371,-0.016018678,77.65700947,12.85032641,0.0
152145600582,-0.16542205,0.93103486,9.695848,0.0028579712,0.12544556,-0.07311706,77.65700947,12.85032641,0.0
152145600604,-0.06581879,0.42920685,10.276323,-0.02484436,0.11681519,-0.18587494,77.65700947,12.85032641,0.0
152145600626,-0.28309327,0.40395203,9.133328,-0.014402771,-0.015870666,-0.36036378,77.6570347,12.8502959,0.2
152145600648,-0.47127685,0.07175598,9.969623,-0.05530548,-0.08282165,-0.33698273,77.6570347,12.8502959,0.2
152145600670,-0.051216125,0.2871124,11.053479,0.080358885,-0.07008972,-0.49730378,77.6570347,12.8502959,0.2
152145600692,-0.7906662,0.37174836,8.681181,0.0726883,0.031217957,-0.26544952,77.6570347,12.8502959,0.2
152145600714,-0.13812408,0.26341248,10.044803,-0.013174439,-0.004312134,-0.22284088,77.6570347,12.8502959,0.2
152145600736,0.21286774,0.75111234,9.100406,0.028746033,-0.07355652,-0.31434783,77.65705366,12.85027052,0.73
152145600758,0.16773835,1.8049179,10.309598,0.049943544,-0.13342437,-0.33602446,77.65705366,12.85027052,0.73
152145600780,-0.24921569,-0.3620758,10.320135,-0.009498596,-0.19584961,-0.20158844,77.65705366,12.85027052,0.73
152145600802,-1.0102142,1.146875,8.540407,-0.05503998,-0.1783783,0.0845993,77.65705366,12.85027052,0.73
152145600824,-0.66173553,0.18164825,11.028338,0.085365295,-0.0253479,0.46165314,77.65704433,12.85026302,1.35
152145600846,0.13110504,0.49911958,10.064314,0.020437622,0.10338898,0.58458406,77.65704433,12.85026302,1.35
152145600868,0.25416565,0.70969087,9.832196,0.038116455,0.18999939,0.42905578,77.65704433,12.85026302,1.35
152145600890,1.0563492,0.8327545,9.774493,-0.0047058105,0.07766724,0.08023224,77.65704433,12.85026302,1.35
152145600912,0.35328978,0.64755857,10.674475,0.104701236,-0.025724793,-0.08557892,77.65704433,12.85026302,1.35
152145600934,-0.07922363,0.5630463,9.556383,0.027093505,-0.079148866,-0.015646363,77.65702566,12.85025399,2.18
152145600956,-0.44290924,-0.86617583,10.373883,-0.09493408,-0.074568175,0.079704285,77.65702566,12.85025399,2.18
152145600978,-0.19965363,-0.38481903,9.357544,0.008396911,5.371094E-4,0.2781067,77.65702566,12.85025399,2.18
152145601000,0.14271545,-0.23015594,10.509753,0.023312379,0.15047912,0.31192932,77.65702566,12.85025399,2.18
152145601022,0.6301788,-0.062080383,9.088915,0.016760254,0.1282135,0.080393985,77.65700769,12.85024784,2.37
152145601044,0.44295043,-0.8957459,9.819028,-0.13567963,0.044799805,-0.13143921,77.65700769,12.85024784,2.37
152145601067,0.09602966,-0.4299515,10.639879,-0.056425475,-0.020555114,-0.14055176,77.65700769,12.85024784,2.37
152145601088,-0.6684433,0.19505921,7.966037,0.05452423,0.056520082,0.01839142,77.65700769,12.85024784,2.37
152145601110,0.6134201,-0.015272522,11.653826,0.005682373,0.19979858,0.06393585,77.65700769,12.85024784,2.37
152145601132,1.5590073,0.5406601,8.648023,0.25159758,0.0010131836,-0.43125916,77.65698592,12.85024947,2.56
152145601155,-0.23939972,0.2928589,9.826808,0.2157013,-0.21011963,-0.4676361,77.65698592,12.85024947,2.56
152145601177,-0.18624726,-1.1570679,11.253634,-0.5330261,-0.21443328,-0.1308014,77.65698592,12.85024947,2.56
152145601199,-0.8192749,0.94827116,7.2901535,0.18986663,-0.07376709,0.0957901,77.65698592,12.85024947,2.56
152145601221,-0.42052,0.5880661,11.4322405,0.09836273,0.053962708,0.24886627,77.65696365,12.85024865,3.07
152145601243,0.4102707,0.40311128,8.929103,-0.21334076,0.058543395,0.15741578,77.65696365,12.85024865,3.07
152145601265,0.015223694,0.4682358,9.837103,-0.010612488,0.093962096,0.012857055,77.65696365,12.85024865,3.07
152145601287,0.32264557,0.42106932,10.019064,-0.029846191,0.06275024,-0.045578003,77.65696365,12.85024865,3.07
152145601309,0.12643738,0.5406586,9.464449,-0.007637024,-0.018904114,-0.13240357,77.65696365,12.85024865,3.07
152145601331,-0.19761963,0.3575012,10.027563,-0.0664917,-0.04905548,-0.09697876,77.65694865,12.8502465,1.52
152145601353,-0.024517823,0.31632233,9.960645,-0.108461,-0.0332901,-0.005470276,77.65694865,12.8502465,1.52
152145601375,-0.053248595,0.7207047,10.219698,0.18901977,-0.0021789551,-0.010580445,77.65694865,12.8502465,1.52
152145601397,0.08142395,-0.07752228,9.955736,0.06683044,0.018544007,-0.026564026,77.65694865,12.8502465,1.52
152145601419,-0.22874145,0.44488984,9.405431,-0.16423187,-0.015231323,-0.004563904,77.65694865,12.8502465,1.52
152145601441,0.13481598,0.36396942,9.935145,0.067308046,0.012203979,-0.02060089,77.65693877,12.85024463,1.58
152145601463,-0.036611937,0.12802124,9.971538,0.045046996,0.008259582,-0.023635864,77.65693877,12.85024463,1.58
152145601485,-0.01613922,-0.17568359,10.093883,0.0032302856,0.023760986,0.0020385743,77.65693877,12.85024463,1.58
152145601507,0.28457338,-0.734375,9.38831,-0.025053406,0.035746764,-0.026191711,77.65693877,12.85024463,1.58
152145601529,0.35448456,-0.47568053,10.247709,-0.047265626,0.0077850344,-0.074769594,77.65693057,12.85024165,1.09
152145601551,0.016186524,-1.0544784,10.10681,0.044033814,0.006237793,-0.050959777,77.65693057,12.85024165,1.09
152145601573,0.04395447,-0.971402,9.049292,-0.07570801,0.04059448,-0.010050965,77.65693057,12.85024165,1.09
152145601595,0.35915375,-1.0571121,10.255606,-0.13349915,0.07857361,-0.06507568,77.65693057,12.85024165,1.09
152145601617,0.16187134,-1.0338913,10.16918,0.075350955,0.026638795,-0.16802979,77.65693057,12.85024165,1.09
152145601639,0.19479065,-1.7053436,9.954181,0.11103821,-0.024978638,-0.13170624,77.65690457,12.8502392,3.55
152145601661,-0.060908508,-1.597966,10.555244,-0.13685456,-0.04170532,-0.09926605,77.65690457,12.8502392,3.55
152145601683,0.31629792,-1.6067032,9.264173,0.08883057,-0.03531189,-0.08153381,77.65690457,12.8502392,3.55
152145601705,0.43038177,-2.1633575,10.359159,0.051220704,-0.09214477,-0.15040283,77.65690457,12.8502392,3.55
152145601726,0.18916473,-1.3053955,9.80586,0.017825317,-0.2232788,-0.16206817,77.65686707,12.85023917,3.65
152145601748,-0.47522584,-1.2783387,9.795207,-0.06425476,-0.25992432,0.072351076,77.65686707,12.85023917,3.65
152145601770,-1.1508758,-1.1832886,12.024806,0.23279877,-0.068812564,0.47928467,77.65686707,12.85023917,3.65
152145601792,-0.3231964,-1.3324478,6.025894,0.27428895,0.23788147,0.6975037,77.65686707,12.85023917,3.65
152145601814,0.5388382,-1.0936264,12.899167,-0.39299622,0.22371368,0.3591202,77.65686707,12.85023917,3.65
152145601901,1.0927368,-0.738562,8.690999,-0.14212799,0.11638641,-0.009889221,77.65679451,12.85026204,3.41
152145601923,0.5266312,0.115449525,10.844345,0.29229584,0.03036499,-0.20984344,77.65679451,12.85026204,3.41
152145601945,-0.034336854,0.5039078,9.402433,0.092236325,-0.083782956,-0.15541077,77.65679451,12.85026204,3.41
152145601967,-0.2796219,-0.307489,10.023972,-0.10217895,-0.095127866,-0.0509079,77.65679451,12.85026204,3.41
152145601989,-0.26406097,0.20977935,9.301878,-0.08449402,-0.051716615,0.10628052,77.65676856,12.85026191,2.82
152145602011,-0.13501282,0.20762482,9.31888,-0.013388062,-0.025614928,0.12790832,77.65676856,12.85026191,2.82
152145602033,-0.15668182,-0.6885254,10.81645,-0.045880128,0.050395202,0.16726533,77.65676856,12.85026191,2.82
152145602055,0.10057831,-0.42432556,8.988359,0.088401794,0.12320709,0.13232422,77.65676856,12.85026191,2.82
152145602077,0.383815,-0.7043289,10.142962,-0.11213684,0.20864257,0.01525116,77.65676856,12.85026191,2.82
152145602099,1.0337204,-0.4679001,10.216944,-0.039060973,0.054974366,-0.29533234,77.6567411,12.85025216,3.06
152145602121,0.21585846,-0.81111145,8.552854,0.1497589,-0.18855134,-0.38960725,77.6567411,12.85025216,3.06
152145602143,-0.6324097,-0.56845397,11.172709,-0.03714447,-0.2900711,-0.08930664,77.6567411,12.85025216,3.06
152145602165,-1.1379471,-0.7001373,8.875589,0.13420868,-0.0752594,0.2852997,77.6567411,12.85025216,3.06
152145602188,-0.48169556,-0.98265535,10.6722,-0.109529115,0.22041015,0.44114226,77.6567411,12.85025216,3.06
152145602209,1.0897461,-0.473526,9.297091,0.075135805,0.37509003,0.15288696,77.65671402,12.85024333,3.05
152145602231,1.7825089,-0.9280685,10.385256,0.06512451,0.18627167,-0.41086274,77.65671402,12.85024333,3.05
152145602253,0.13385773,-1.1477371,9.543333,-0.035227966,-0.08228912,-0.5259094,77.65671402,12.85024333,3.05
152145602275,-0.23448792,-1.438153,9.978479,-0.06649323,-0.124952696,-0.2753067,77.65671402,12.85024333,3.05
152145602297,0.05784302,-1.8518708,9.287395,0.0074920654,-0.14013366,-0.17106628,77.65668539,12.85024342,3.1
152145602319,-0.3716797,-1.8776093,9.5786495,0.030769348,-0.086976625,-0.007920837,77.65668539,12.85024342,3.1
152145602341,0.2772751,-1.8170395,10.034868,-0.024734497,-0.04468689,0.0086456295,77.65668539,12.85024342,3.1
152145602363,0.23261872,-2.029283,10.822438,-0.11496277,-0.05107727,0.053067017,77.65668539,12.85024342,3.1
152145602385,0.03186493,-0.6861328,8.5519,0.23993835,-0.026416015,-0.0023788451,77.65668539,12.85024342,3.1
152145602408,-0.20193024,-1.7021103,9.781919,0.048397828,-0.025135804,0.02425232,77.65666431,12.85025501,2.19
152145602430,-0.06306305,-0.37548524,10.096156,-0.12998047,-0.06791077,0.14287415,77.65666431,12.85025501,2.19
152145602452,0.1819809,-0.4723282,9.228618,0.17596741,0.011564637,0.10233917,77.65666431,12.85025501,2.19
152145602474,0.1344574,-0.7209671,10.2542925,-0.10739746,-0.03467407,0.07480011,77.65666431,12.85025501,2.19
152145602496,-0.002253723,-0.55995786,9.374066,-0.025538635,0.01652069,0.14143524,77.65663727,12.85026849,2.74
152145602518,0.03414154,-0.4463501,9.48396,2.4871825E-4,0.052366637,0.14974518,77.65663727,12.85026849,2.74
152145602540,0.5627823,-0.33574218,9.763003,-0.008807373,0.03649292,0.04145813,77.65663727,12.85026849,2.74
152145602562,0.16235046,-0.2618805,9.862124,0.02261963,-0.038189698,-0.046430968,77.65663727,12.85026849,2.74
152145602584,-0.3312195,-0.42240754,10.097112,0.086006165,0.012413025,0.1054306,77.65663727,12.85026849,2.74
152145602606,0.06921692,-0.21722412,9.778086,0.06486054,0.08618774,0.120983884,77.65661629,12.8502697,2.69
152145602628,0.22447816,-0.22105408,10.140928,0.06171875,0.11340485,0.0128036495,77.65661629,12.8502697,2.69
152145602650,0.39063874,-0.35513002,9.464205,0.0013137817,0.12453766,-0.05170288,77.65661629,12.8502697,2.69
152145602672,0.88037264,-0.71151274,9.751513,-0.106385805,0.049220275,-0.29277498,77.65661629,12.8502697,2.69
152145602694,0.17024994,-0.56654054,9.967346,0.013674927,-0.11846008,-0.35003358,77.65659796,12.85024831,2.48
152145602716,-0.30296478,-0.8236801,9.141347,0.021444703,-0.17060089,-0.18960266,77.65659796,12.85024831,2.48
152145602738,-0.33396912,-0.6839752,10.294156,-0.029582214,-0.14476928,0.011947632,77.65659796,12.85024831,2.48
152145602760,-0.5799759,-0.5267975,9.405667,0.041160583,-0.02716217,0.2303299,77.65659796,12.85024831,2.48
152145602782,0.45504302,-0.65955657,9.8468,0.03097992,0.10083465,0.15986633,77.65659796,12.85024831,2.48
152145602804,0.7441422,-0.59634703,9.526456,-0.09658661,0.05875702,0.011360168,77.65656524,12.85025126,2.73
152145602826,0.48891753,-0.44958496,9.709375,0.0530365,-0.022845458,-0.14140014,77.65656524,12.85025126,2.73
152145602848,0.15217438,-0.821524,9.862363,-0.048329163,-0.10775147,-0.087286375,77.65656524,12.85025126,2.73
152145602870,-0.58105165,-0.2765991,9.626773,0.09884491,-0.060717773,0.083747864,77.65656524,12.85025126,2.73
152145602892,-0.081381224,-0.43497926,9.374544,0.0865921,-0.010700989,0.17930603,77.65653896,12.85025322,2.54
152145602914,0.28684998,-0.51554716,10.35066,-0.11293793,0.019767761,0.16875915,77.65653896,12.85025322,2.54
152145602936,0.24183655,-0.14755554,9.720027,0.10928039,0.050714113,0.13429718,77.65653896,12.85025322,2.54
152145602958,0.5913925,-0.46430817,10.071378,-0.020472717,0.024934387,0.046305846,77.65653896,12.85025322,2.54
152145602980,0.03916626,-0.3620758,10.270694,-0.1026062,-0.016403198,0.0061950684,77.65653896,12.85025322,2.54
152145603003,0.030308533,-0.46598664,8.387894,-0.023348998,-0.03818817,0.056800842,77.65651748,12.85025054,2.82
152145603024,-0.5179642,-0.38099366,11.284279,0.18880615,0.078408815,0.16923828,77.65651748,12.85025054,2.82
152145603046,0.6438278,-0.21495056,8.126567,-0.06281433,0.061421204,0.19629821,77.65651748,12.85025054,2.82
152145603068,0.8797714,-1.5014786,12.716609,-0.15949097,-0.048999023,-0.18747406,77.65651748,12.85025054,2.82
152145603090,-0.7598999,0.35235596,7.446852,0.14986725,-0.0848999,-0.046107482,77.6564935,12.85026365,1.79
152145603112,-0.7287735,-1.0712417,12.14619,-0.005397034,0.06770325,0.24998626,77.6564935,12.85026365,1.79
152145603135,0.69134676,-0.5050125,7.946762,-6.866455E-5,0.12325744,0.19864197,77.6564935,12.85026365,1.79
152145603157,0.40332794,-0.8637802,9.639465,-0.13403015,0.11457672,-0.057402037,77.6564935,12.85026365,1.79
152145603179,0.39231262,-0.5685776,9.96711,-0.19299316,0.013908386,-0.14081573,77.6564935,12.85026365,1.79
152145603201,0.12535858,-0.26774445,10.132429,0.23764649,0.053964235,-0.15066986,77.65647641,12.85026105,1.64
152145603223,0.32120818,-0.11235962,9.712606,0.1677124,-0.013420105,-0.17474213,77.65647641,12.85026105,1.64
152145603245,-0.2977005,-0.44563293,10.5324955,-0.11538696,0.0094360355,-0.119458005,77.65647641,12.85026105,1.64
152145603267,0.37782747,-0.1491104,9.301761,0.04243622,0.01534729,-0.14960328,77.65647641,12.85026105,1.64
152145603289,0.3675354,-0.32460633,9.8860655,0.052337646,-0.08064117,-0.23434448,77.65645281,12.85027365,1.66
152145603311,-0.31577605,-0.20322113,10.922159,0.012391662,-0.13539276,-0.16505127,77.65645281,12.85027365,1.66
152145603333,-0.68807375,-0.38757628,7.396695,-0.02121582,-0.11909332,0.12758636,77.65645281,12.85027365,1.66
152145603355,0.2571594,-0.5416382,11.515678,-0.026812743,-0.050865173,0.11352539,77.65645281,12.85027365,1.66
152145603377,-0.16062927,-0.7348541,8.741277,-0.07256317,-0.08362274,0.095840454,77.65645281,12.85027365,1.66
152145603399,0.025042724,-0.97331697,8.944903,-0.066596985,-0.023274232,0.21552429,77.65641041,12.85029796,2.37
152145603421,0.47024536,-0.17796326,11.6770525,-0.007157898,0.0075698853,0.20833282,77.65641041,12.85029796,2.37
152145603443,0.22579499,-0.56641996,9.35419,0.1916275,0.011511231,0.12726593,77.65641041,12.85029796,2.37
152145603465,-0.3225998,-0.91896975,10.078441,-0.004545593,0.07468567,0.15714721,77.65641041,12.85029796,2.37
152145603488,0.49095613,-0.70408785,9.655025,-0.05493927,0.1638443,0.117947385,77.65641041,12.85029796,2.37
152145603509,1.2884643,-1.2292602,9.363052,-0.008171082,0.03505554,-0.20936432,77.65637098,12.85030088,2.97
152145603531,-0.4231537,-1.6677582,8.282069,-0.29185027,-0.028866578,-0.20563659,77.65637098,12.85030088,2.97
152145603553,-0.24646148,-0.5799484,11.161097,0.27104187,0.044903565,-0.01127472,77.65637098,12.85030088,2.97
152145603575,0.056642152,-0.21734619,8.64623,0.10736237,0.11915741,0.01999054,77.65637098,12.85030088,2.97
152145603597,0.478743,-2.740837,12.1785145,-0.17067719,0.10323181,-0.18049316,77.65633594,12.85030609,3.08
152145603619,0.6589111,-0.65213776,7.244542,-0.06601562,0.106587216,-0.28350526,77.65633594,12.85030609,3.08
152145603641,0.43049926,-0.8184128,12.607077,0.16382141,0.0066070557,-0.4826584,77.65633594,12.85030609,3.08
152145603663,-0.11586151,-1.1161315,8.636769,-0.027558899,-0.048574828,-0.42124635,77.65633594,12.85030609,3.08
152145603686,-0.015299988,-0.6754761,10.437449,0.14763336,-0.060397338,-0.36419982,77.65631479,12.85030851,2.37
152145603707,-0.21389922,-1.1027237,9.529091,-0.10761414,-0.08005371,-0.178685,77.65631479,12.85030851,2.37
152145603729,-0.41513366,-0.3686615,9.306429,0.094581604,0.0029342652,-0.10512848,77.65631479,12.85030851,2.37
152145603751,0.76772463,-1.0960205,10.691836,-0.0074752807,-0.057896424,-0.12739106,77.65631479,12.85030851,2.37
152145603774,0.53369296,-0.3053299,8.228917,-0.009127808,-0.13805847,-0.2546402,77.65631479,12.85030851,2.37
152145603795,0.26614076,-1.3645309,11.45235,-0.05834198,-0.30908355,-0.22438355,77.65629115,12.85031498,1.98
152145603818,-0.9151627,-0.9603882,8.481867,-0.010241699,-0.25619507,0.19528504,77.65629115,12.85031498,1.98
152145603840,-0.87757266,-1.095903,10.39519,0.2550644,-0.11733856,0.64317477,77.65629115,12.85031498,1.98
152145603862,-0.35049134,-2.0547805,10.848772,0.036042787,0.016093444,0.8210205,77.65629115,12.85031498,1.98
152145603884,0.21167144,-0.9314178,9.321634,0.19759217,0.26296693,0.87199247,77.65629115,12.85031498,1.98
152145603906,1.1516327,-1.180777,11.029657,0.09186401,0.3071228,0.5460739,77.65626312,12.85032369,2.15
152145603928,2.0911224,-0.29827118,8.425601,0.04456787,0.033987425,-0.16675262,77.65626312,12.85032369,2.15
152145603950,-0.14614563,0.0044769286,9.729364,0.025605774,-0.11179962,-0.24894103,77.65626312,12.85032369,2.15
152145603972,-0.24167328,-0.44000855,10.459238,-0.21339265,-0.030729676,0.08172455,77.65626312,12.85032369,2.15
152145603994,0.21825714,0.0030410767,9.3320465,-0.045935057,0.018118287,0.09339142,77.65624612,12.85032493,1.7
152145604016,-0.23317567,1.1394516,9.670944,0.1962616,0.0362793,0.07847595,77.65624612,12.85032493,1.7
152145604038,-0.17607269,-0.62879026,10.633413,-0.08273621,0.12922363,0.1678009,77.65624612,12.85032493,1.7
152145604060,0.71361697,-0.52200925,8.429074,-0.080818176,0.14770813,0.0070999144,77.65624612,12.85032493,1.7
152145604082,1.6677094,-0.5335022,11.13165,0.09569855,0.018434143,-0.31285247,77.65624612,12.85032493,1.7
152145604104,-0.50288236,-0.28378755,9.580564,0.10001526,-0.17310485,-0.3232422,77.65623114,12.850321,1.68
152145604126,-1.1050247,-0.61131287,10.854042,0.06672211,-0.043354798,0.124334715,77.65623114,12.850321,1.68
152145604148,0.18269959,-0.69786376,8.0138,-0.047317505,0.046505738,0.102235414,77.65623114,12.850321,1.68
152145604170,0.14235839,-1.2357223,10.638922,-0.03682251,-0.033711243,-0.02400818,77.65623114,12.850321,1.68
152145604192,0.32826844,-0.578273,9.407944,0.08866577,-0.056138612,-0.025926208,77.65621544,12.85031217,1.69
152145604214,-0.67586213,-0.5592392,9.689382,0.009353638,-0.03286133,0.105322264,77.65621544,12.85031217,1.69
152145604236,-0.42794496,-1.2180054,9.411896,-0.111126706,0.11329956,0.3003189,77.65621544,12.85031217,1.69
152145604258,0.7488098,-0.44982606,10.456245,0.035827637,0.027972411,0.015092468,77.65621544,12.85031217,1.69
152145604280,1.0562271,-1.2547576,11.245494,-0.06409607,-0.026678467,-0.15956421,77.65621544,12.85031217,1.69
152145604303,0.47491303,-0.75867766,9.260341,0.18310241,-0.283786,-0.2865982,77.65619495,12.8503067,1.69
152145604324,-1.7890427,-1.0342499,9.613005,-0.047319032,-0.24026795,0.19863892,77.65619495,12.8503067,1.69
152145604346,-0.8074249,-0.6348969,9.863439,0.0065856935,0.15532532,0.74842227,77.65619495,12.8503067,1.69
152145604368,0.29331055,-0.9961807,10.314987,-0.12407074,0.27905273,0.6010437,77.65619495,12.8503067,1.69
152145604391,1.4141586,0.16560975,9.17379,0.2121872,0.25263673,0.07639618,77.6561732,12.85030259,1.67
152145604412,0.32503814,-0.36387023,9.595408,0.042167664,0.20842743,-0.15466157,77.6561732,12.85030259,1.67
152145604434,1.1220672,-0.8385208,10.478032,-0.08688965,0.1809433,-0.47994232,77.6561732,12.85030259,1.67
152145604456,0.59857637,0.4046692,9.952265,0.061927795,-0.02077179,-0.6531021,77.6561732,12.85030259,1.67
152145604479,-0.47522888,-0.044602968,10.11064,0.1714386,-0.10902862,-0.56953275,77.6561732,12.85030259,1.67
152145604500,-0.19175568,0.18883057,9.737742,0.013938904,-0.18529968,-0.41282958,77.65615085,12.85029843,1.7
152145604523,-0.73715365,0.27980956,9.735588,0.03204956,-0.18003082,-0.17804566,77.65615085,12.85029843,1.7
152145604545,-0.21426086,0.29525298,9.727687,6.195068E-4,-0.17331696,-0.041107178,77.65615085,12.85029843,1.7
152145604567,-0.6240295,0.26125488,9.5527935,-0.047053527,-0.13092041,0.12641601,77.65615085,12.85029843,1.7
152145604589,-0.066893004,0.14238128,9.837941,-0.0578125,-0.07728424,0.16135558,77.65612638,12.85030153,1.78
152145604611,0.019296264,0.2766983,9.790896,0.10086517,-0.046551514,0.18394013,77.65612638,12.85030153,1.78
152145604633,0.18329772,-0.048913576,9.757375,0.049946595,-0.025935363,0.19789429,77.65612638,12.85030153,1.78
152145604655,0.015704345,-0.0201828,10.089813,-0.0145050045,0.020619202,0.22484589,77.65612638,12.85030153,1.78
152145604677,-0.05528412,0.030574035,10.181028,0.028157044,0.049490355,0.18979493,77.65612638,12.85030153,1.78
152145604699,-0.18157959,0.03237152,9.847399,0.012872314,0.13055725,0.21285859,77.65611103,12.85030405,0.39
152145604721,0.41565856,-0.016235352,10.304094,-0.034640502,0.18909302,0.10920715,77.65611103,12.85030405,0.39
152145604743,0.4671341,0.025547791,9.31026,0.013726806,0.13135529,-0.078230284,77.65611103,12.85030405,0.39
152145604765,0.34407043,-0.17365113,10.489283,-0.011041259,0.040115356,-0.15631409,77.65611103,12.85030405,0.39
152145604787,0.12344055,-0.13917542,9.0680895,0.018411255,-0.034835815,-0.13468628,77.65608057,12.85030392,3.91
152145604809,0.012832642,-0.3083252,10.512866,-0.0064102174,-0.05997467,-0.09649811,77.65608057,12.85030392,3.91
152145604831,-0.060552977,-0.18921356,9.488508,0.028800964,-0.0879364,-0.056713868,77.65608057,12.85030392,3.91
152145604853,-0.13992004,-0.38529664,9.822382,-0.036187746,-0.07978821,0.0072647096,77.65608057,12.85030392,3.91
152145604875,-0.07767181,-0.27540436,10.25238,0.029916381,-0.054063417,0.055308532,77.65608057,12.85030392,3.91
152145604898,-0.01386261,-0.6333405,10.00781,0.03721466,-0.0035644532,0.09237976,77.65604388,12.85030114,1.83
152145604919,0.19658966,-0.45999756,9.5760145,-0.06526794,-0.011236573,0.036930848,77.65604388,12.85030114,1.83
152145604941,-0.28105775,-0.20441437,9.775813,0.02033081,0.010284424,0.072776794,77.65604388,12.85030114,1.83
152145604963,0.036535643,-0.59490967,10.00482,0.0048294067,0.1246994,0.1091034,77.65604388,12.85030114,1.83
152145604985,0.2663788,-0.5403244,9.415247,-0.053390503,0.1730072,0.010350036,77.65604388,12.85030114,1.83
152145605007,0.6132965,-0.45269316,10.653287,0.023365784,0.121235654,-0.14310455,77.65601726,12.85030034,1.31
152145605029,0.23226014,-0.7397629,9.483839,0.09820251,0.032229614,-0.20430298,77.65601726,12.85030034,1.31
152145605051,0.2838562,-0.48788756,10.099508,-0.066281125,-0.069293216,-0.21133575,77.65601726,12.85030034,1.31
152145605073,-0.29051667,-0.91645354,8.9617815,-0.03613434,-0.08229218,-0.12344818,77.65601726,12.85030034,1.31
152145605095,-0.0060836794,-0.6764358,10.093883,-0.0037994385,-0.04372864,-0.03807068,77.65589095,12.85031615,4.42
152145605118,-0.06653748,-0.66123044,9.960165,0.10688782,-0.0020217896,-0.06049652,77.65589095,12.85031615,4.42
152145605139,0.11745758,-0.7990204,9.462651,0.004776001,0.022859192,-0.030934144,77.65589095,12.85031615,4.42
152145605161,0.5420715,-0.91466063,9.714399,-0.09296723,-0.029185485,-0.12717895,77.65589095,12.85031615,4.42
152145605184,-0.25412446,-0.688887,9.5190325,0.04690857,-0.057948302,-0.06257019,77.65589095,12.85031615,4.42
152145605206,0.34550628,-0.74850005,9.99129,-0.008648681,-0.008409118,-0.043447874,77.65584426,12.85031284,4.69
152145605228,0.2617096,-0.5117127,11.072035,0.16099854,-0.08111878,-0.0690155,77.65584426,12.85031284,4.69
152145605250,0.14295654,-1.2563156,8.971716,0.02464447,-0.03424988,-0.03513794,77.65584426,12.85031284,4.69
152145605272,0.122843936,-0.8587524,9.929639,-0.17632294,-0.13758087,-0.0059494018,77.65584426,12.85031284,4.69
152145605294,-0.2834503,0.060739137,10.043961,0.10603027,-0.055656433,0.095947266,77.65581655,12.85031075,3.19
152145605316,-0.44518128,-0.3220932,9.752826,-0.028997803,0.07149048,0.23890534,77.65581655,12.85031075,3.19
152145605338,0.37148285,-0.15270233,9.062459,-0.04188385,0.14030151,0.15224609,77.65581655,12.85031075,3.19
152145605360,0.32120666,0.008784485,10.756719,-0.009927368,0.15010376,-0.034713745,77.65581655,12.85031075,3.19
152145605382,0.20568542,0.11880493,9.099928,0.06576385,0.07622528,-0.099055484,77.65581655,12.85031075,3.19
152145605404,0.42595214,-0.21650848,10.40896,-0.07331238,-0.009796143,-0.18204193,77.65579209,12.85030848,3.26
152145605426,-0.21150818,0.3225479,9.504669,0.07316742,-0.09859009,-0.1292572,77.65579209,12.85030848,3.26
152145605448,-0.26549378,-0.23422547,10.529386,-0.022177124,-0.08559265,-0.027844239,77.65579209,12.85030848,3.26
152145605470,-0.005004883,0.021833802,9.451639,0.025764465,-0.055604555,0.023190308,77.65579209,12.85030848,3.26
152145605492,-0.06091156,-0.2475113,9.803347,0.053886414,-0.010539246,0.046092223,77.6557429,12.85031467,4.3
152145605514,0.08752899,-0.22081909,9.962321,-0.078372195,0.004798889,0.051527403,77.6557429,12.85031467,4.3
152145605536,0.16869202,-0.5357727,9.345934,0.011381531,0.052578736,0.048968505,77.6557429,12.85031467,4.3
152145605558,0.46270448,-0.7506561,9.568359,-0.06148834,0.034840394,-0.026300048,77.6557429,12.85031467,4.3
152145605580,0.07651977,-0.8370865,9.681836,-0.04577179,-0.005162048,-0.05410614,77.6557429,12.85031467,4.3
152145605602,-0.05420685,-0.5861694,10.322645,0.078656,-0.012088013,-0.009042358,77.65570145,12.85031808,4.77
152145605624,0.2269928,-0.8639008,9.957173,0.014096069,-5.264282E-4,-1.953125E-4,77.65570145,12.85031808,4.77
152145605646,0.008399963,-0.79854125,9.385676,-0.07421722,0.0040542604,-0.0069122314,77.65570145,12.85031808,4.77
152145605668,0.20616302,-0.6564453,9.869066,0.037905883,0.046029665,0.022712708,77.65570145,12.85031808,4.77
152145605690,0.5636231,-1.0201232,9.784309,-0.070272826,0.013482666,-0.08878021,77.65566134,12.85032327,4.91
152145605713,0.2873276,-0.4386917,9.358261,0.11567078,-0.1533432,-0.12819214,77.65566134,12.85032327,4.91
152145605734,-0.16302185,-1.1950241,11.016607,-0.08438873,-0.27430573,-0.017611694,77.65566134,12.85032327,4.91
152145605756,-0.38915712,-0.8981384,8.528789,0.049467467,-0.18977661,0.22660217,77.65566134,12.85032327,4.91
152145605778,-0.6216339,-0.9924728,10.963333,0.062194824,0.08011322,0.41659242,77.65566134,12.85032327,4.91
152145605800,0.33999938,-0.6957092,8.886846,0.052874755,0.32001343,0.36316985,77.65562205,12.85032874,4.49
152145605823,1.3150421,-0.5041717,10.921797,0.0014724731,0.2589218,-0.090322874,77.65562205,12.85032874,4.49
152145605844,0.62024385,-0.8153,8.341451,-0.07400207,0.046347044,-0.22156677,77.65562205,12.85032874,4.49
152145605867,0.20951386,-0.550618,10.518252,-0.020043945,-0.03983917,-0.17778015,77.65562205,12.85032874,4.49
152145605889,-0.1105896,-0.5108719,10.570928,0.068322755,-0.04985199,-0.06816101,77.65559706,12.85033031,1.83
152145605911,0.080711365,-0.8345734,9.307628,0.03966217,-0.0060684206,-0.012713623,77.65559706,12.85033031,1.83
152145605933,0.1402069,-0.6894821,10.410994,-0.048220824,-0.014326477,-0.03423767,77.65559706,12.85033031,1.83
152145605955,0.12177124,-0.5751602,9.036603,0.06880035,-3.1433106E-4,-0.034449767,77.65559706,12.85033031,1.83
152145605977,0.13337708,-0.76203156,10.581818,-0.021217346,0.008633423,-0.052879333,77.65559706,12.85033031,1.83
152145605999,0.14942169,-0.72360384,9.59541,-0.009289551,-0.018641662,-0.050694276,77.65556119,12.85033607,3.56
152145606021,0.15900116,-0.71127474,9.0757475,0.04083557,-0.045272827,-0.04664459,77.65556119,12.85033607,3.56
152145606043,0.4132614,-1.2476914,10.219816,-0.092430115,-0.10087891,-0.04776459,77.65556119,12.85033607,3.56
152145606065,-0.039720155,-0.79938203,8.910428,0.015219117,-0.078826904,0.03570404,77.65556119,12.85033607,3.56
152145606087,0.059040833,-0.9599091,9.922098,-0.084179685,0.005809021,0.10750427,77.65556119,12.85033607,3.56
152145606109,0.45420226,-0.6676941,9.266325,0.06682587,0.06807709,0.07240448,77.6555312,12.85033927,1.94
152145606131,0.17216492,-0.81122893,10.134822,-0.016531372,0.06344452,-0.003286743,77.6555312,12.85033927,1.94
152145606153,0.21849518,-0.71246946,9.235321,0.024534607,0.02749176,-0.02720642,77.6555312,12.85033927,1.94
152145606175,0.32443696,-0.9277069,10.016668,0.038121033,0.0047485353,-0.04723511,77.6555312,12.85033927,1.94
152145606197,0.3651413,-0.59263766,9.49126,0.009838867,-0.024551392,-0.048191834,77.65550877,12.85034191,2.05
152145606219,0.14343414,-0.9408768,9.686867,-0.040019225,-0.034669496,-0.046647646,77.65550877,12.85034191,2.05
152145606241,0.27116394,-0.7259949,9.799754,0.022673035,-0.06428833,-0.02997284,77.65550877,12.85034191,2.05
152145606263,0.33054352,-1.0069535,9.949509,-0.033952333,-0.0799469,0.01871338,77.65550877,12.85034191,2.05
152145606285,0.13792725,-0.8279892,9.353235,-0.042362977,-0.07249298,0.05988922,77.65550877,12.85034191,2.05
152145606308,-0.043911744,-0.57563937,10.544352,0.083178714,-0.030888367,0.10729065,77.65548209,12.85034191,2.1
152145606329,0.1297882,-0.7135452,9.786825,0.02576294,0.03212433,0.15469666,77.65548209,12.85034191,2.1
152145606351,0.38392943,-0.67068636,9.956093,-0.033625793,0.057000734,0.06638489,77.65548209,12.85034191,2.1
152145606373,0.21932983,-0.7811844,9.649994,-0.0068359375,0.026322937,0.040448,77.65548209,12.85034191,2.1
152145606395,0.2285492,-0.73785096,9.977524,-0.015036011,0.05439148,0.042256165,77.65545374,12.85034141,2.17
152145606418,0.018218994,-0.62735444,10.027084,0.009144592,0.06541748,0.040022276,77.65545374,12.85034141,2.17
152145606439,0.20700225,-0.63358,10.697101,0.024058532,0.11244812,0.033361815,77.65545374,12.85034141,2.17
152145606461,0.64825284,-0.85827637,9.356587,0.02469635,0.13987732,-0.06742096,77.65545374,12.85034141,2.17
152145606483,0.6607071,-0.3601593,10.269257,0.018040467,0.058276366,-0.19365387,77.65545374,12.85034141,2.17
152145606505,0.61329806,-0.8263138,9.8368635,0.061875917,-0.10162659,-0.28558198,77.65542414,12.85034279,2.26
152145606528,-0.05432739,-0.70014036,9.939936,0.0025894165,-0.23520966,-0.18534546,77.65542414,12.85034279,2.26
152145606550,-0.82909393,-0.6858963,9.716792,0.044296265,-0.15547486,0.1072937,77.65542414,12.85034279,2.26
152145606572,0.011872863,-0.6984604,9.749832,0.044247437,0.01625061,0.2559494,77.65542414,12.85034279,2.26
152145606593,0.2570404,-0.3949936,10.517778,-0.08577881,0.06424408,0.08998108,77.65539723,12.85034307,2.29
152145606616,0.17360382,-0.9159759,9.403392,-0.0076873777,0.04565277,0.083537295,77.65539723,12.85034307,2.29
152145606638,0.66752625,-0.64147794,9.866791,0.04461975,0.10179291,0.047369383,77.65539723,12.85034307,2.29
152145606660,0.84733427,-0.96373904,9.372149,0.027197266,-8.4838865E-4,-0.13383636,77.65539723,12.85034307,2.29
152145606682,-0.089164734,-1.214772,10.266742,-0.059568785,-0.08255768,-0.07519531,77.65539723,12.85034307,2.29
152145606704,-0.0041656494,-1.161145,9.585115,0.03476715,-0.043089293,0.083430484,77.65536638,12.85034508,2.37
152145606726,0.1340973,-1.7595764,10.13985,0.0027542114,-0.0017532349,0.08470917,77.65536638,12.85034508,2.37
152145606748,0.17910919,-1.8895813,9.164932,-0.02696991,0.04826355,0.1442047,77.65536638,12.85034508,2.37
152145606770,0.24794464,-1.9470413,9.785269,-0.103831485,0.09662781,0.0929657,77.65536638,12.85034508,2.37
152145606792,0.7489319,-1.8681549,10.112798,-0.09925079,0.064668275,-0.040625,77.65533074,12.85034724,1.99
152145606814,0.26422423,-1.5986847,9.43667,0.14214782,0.0052246093,-0.15008393,77.65533074,12.85034724,1.99
152145606836,-0.0056030275,-1.2837265,9.462648,0.09633789,-0.0012710572,-0.085580446,77.65533074,12.85034724,1.99
152145606858,0.25105745,-2.2385345,10.464266,-0.13227539,-0.01048584,-0.11386566,77.65533074,12.85034724,1.99
152145606880,0.33976135,-1.099968,8.289732,-0.18878631,-0.059490968,-0.10172119,77.65533074,12.85034724,1.99
152145606902,0.23980407,-1.4197174,10.000151,-0.29904175,-0.11414337,-0.14502259,77.6552848,12.85035424,2.68
152145606924,-0.060073853,-1.9078934,10.535014,-0.02776947,-0.18434295,-0.012342835,77.6552848,12.85035424,2.68
152145606946,-0.45906982,-1.7116883,9.615997,0.22512817,-0.1323059,0.17994232,77.6552848,12.85035424,2.68
152145606968,-1.1639191,-0.2423645,8.368258,0.42705232,0.046290588,0.5956634,77.6552848,12.85035424,2.68
152145606990,-0.46241608,-1.4379135,11.890012,0.12808076,0.12773438,0.68796843,77.65523321,12.85036346,2.78
152145607013,0.53800046,-1.8324783,9.366643,-0.24221191,-0.017308045,0.4691635,77.65523321,12.85036346,2.78
152145607034,-0.10879364,-0.91585696,9.938858,0.0077575683,-0.044207763,0.29088897,77.65523321,12.85036346,2.78
152145607056,0.2129898,-2.0796828,8.291408,-0.3666336,-0.06082611,0.40290374,77.65523321,12.85036346,2.78
152145607078,0.04143982,-1.93387,10.92407,0.05660095,-0.09203796,0.40327454,77.65523321,12.85036346,2.78
152145607100,0.6010879,-1.6681182,9.858294,0.15598908,-0.115048215,0.24833374,77.65518692,12.85036576,2.77
152145607123,-0.5438202,-0.29395905,9.106273,0.50327,-0.08564453,0.30990905,77.65518692,12.85036576,2.77
152145607144,0.051855467,-2.4838212,11.999788,0.051487733,-0.056137085,0.48514253,77.65518692,12.85036576,2.77
152145607166,-0.29255065,-1.1427094,8.590805,0.04078064,0.045387268,0.7266388,77.65518692,12.85036576,2.77
152145607188,-0.10556183,-0.33705902,10.670885,0.1349533,0.15362091,0.8005142,77.6551565,12.85035609,2.66
152145607210,0.9307663,0.4050293,9.628687,0.034712218,0.10866699,0.559021,77.6551565,12.85035609,2.66
152145607233,1.0139694,0.58734894,9.721583,0.053193666,0.0027755736,0.10207367,77.6551565,12.85035609,2.66
152145607255,-0.30643767,0.73219603,9.737143,0.0025390624,-0.059390258,0.08369446,77.6551565,12.85035609,2.66
152145607277,0.043714903,0.92588806,9.852066,0.03401947,-0.059387207,0.14606781,77.6551565,12.85035609,2.66
152145607299,-0.440152,0.48200074,9.907254,0.013139343,-0.046710204,0.2781067,77.65513607,12.85033663,2.6
152145607321,-0.3239151,0.62828827,9.873018,0.0429718,0.049861144,0.3816513,77.65513607,12.85033663,2.6
152145607343,0.21095276,0.55574495,9.802388,0.008929444,0.16001129,0.31853333,77.65513607,12.85033663,2.6
152145607365,0.7071518,0.4075409,10.035582,-0.03602753,0.15505524,0.09392242,77.65513607,12.85033663,2.6
152145607387,0.48018187,0.4185562,9.397885,0.0038162232,0.09423218,-0.103904724,77.65513607,12.85033663,2.6
152145607409,0.2129898,0.32542267,10.235858,-0.008435058,0.06024933,-0.13687286,77.65512853,12.85031707,1.07
152145607431,0.14642945,0.5335922,9.5413,0.011009216,0.017692566,-0.15237275,77.65512853,12.85031707,1.07
152145607453,0.13721314,0.31368715,10.27165,-0.014242554,-0.023486327,-0.16595459,77.65512853,12.85031707,1.07
152145607475,0.08130646,0.39162293,9.517718,0.038389586,-0.090278625,-0.15269318,77.65512853,12.85031707,1.07
152145607497,-0.15488128,0.12346955,10.295233,-0.015464783,-0.12889557,-0.082652286,77.65512324,12.85029246,3.13
152145607519,-0.0804245,0.137117,9.394537,-0.015840149,-0.14205322,0.018289184,77.65512324,12.85029246,3.13
152145607541,-0.5118591,0.11018219,10.004702,0.047445677,-0.06716309,0.15592346,77.65512324,12.85029246,3.13
152145607563,-0.08150177,0.09449921,9.827049,0.01920929,0.08027649,0.25488585,77.65512324,12.85029246,3.13
152145607585,0.2782318,0.123112485,9.751154,0.010794068,0.13321991,0.09253845,77.65512324,12.85029246,3.13
152145607607,0.16641846,0.2452118,10.215988,-0.029634094,0.12246247,0.016421508,77.65511503,12.85025785,3.62
152145607629,0.30420685,0.3080597,9.600317,0.023312379,0.082408145,-0.08712463,77.65511503,12.85025785,3.62
152145607651,0.37830657,-0.045561217,10.017629,-0.03075409,0.0010696411,-0.13415985,77.65511503,12.85025785,3.62
152145607673,0.2873291,0.13927002,9.669391,0.025177002,-0.10545959,-0.16015014,77.65511503,12.85025785,3.62
152145607695,-0.32044524,0.075704955,10.190608,0.024647523,-0.162294,-0.053300478,77.65510828,12.85021896,4.25
152145607718,-0.43488923,-0.029159546,9.5391445,0.06523438,-0.095607,0.11890564,77.65510828,12.85021896,4.25
152145607739,-0.072164916,-0.07429047,10.174329,-0.05871887,0.008474732,0.16535035,77.65510828,12.85021896,4.25
152145607761,0.09614563,-0.008691406,9.511615,-0.0076889037,0.04762573,0.11219482,77.65510828,12.85021896,4.25
152145607783,0.028395081,-0.08590241,10.035345,-0.0011398315,0.10205994,0.097436525,77.65510828,12.85021896,4.25
152145607806,-0.002609253,0.619902,9.221558,-0.04625244,0.12240906,0.023773193,77.65510223,12.85016463,4.52
152145607828,0.32970428,-0.2424881,10.186177,0.028425599,0.12698516,-0.058631897,77.65510223,12.85016463,4.52
152145607850,0.38620758,-0.4874161,9.677411,-0.039912414,0.044696044,-0.13607483,77.65510223,12.85016463,4.52
152145607873,0.16534576,-0.2703766,9.600557,0.038388062,-0.01730957,-0.13735351,77.65510223,12.85016463,4.52
152145607894,-0.018415833,-0.41666564,9.836986,0.0053604124,-0.041758727,-0.10656738,77.65511069,12.85011738,4.8
152145607917,0.08657227,-0.5690567,9.715838,-0.0030548095,-0.06774902,-0.082969666,77.65511069,12.85011738,4.8
152145607939,0.10656433,-0.43126678,9.617076,0.035458375,-0.11622314,-0.0708252,77.65511069,12.85011738,4.8
152145607961,0.14068146,-0.31921998,10.145236,-0.052375793,-0.17001648,-0.03785553,77.65511069,12.85011738,4.8
152145607983,-0.35121003,-0.24200745,9.422068,0.09457855,-0.18343659,0.07672272,77.65511069,12.85011738,4.8
152145608005,-0.22778626,-0.6511734,10.171934,0.04109955,-0.11824493,0.21898194,77.65509773,12.85007358,4.81
152145608027,-0.3642578,-0.30808562,9.714038,-0.034588624,0.027009582,0.29558104,77.65509773,12.85007358,4.81
152145608049,0.16306762,-0.37919313,9.838539,0.06283722,0.20416412,0.30468598,77.65509773,12.85007358,4.81
152145608071,0.99302214,-0.36878204,9.608816,-0.03783722,0.20214233,0.057328798,77.65509773,12.85007358,4.81
152145608093,0.42499694,-0.25038606,9.516518,-0.027824402,0.074473575,-0.1030014,77.65509668,12.85003539,4.44
152145608115,0.077594,-0.39463654,10.055455,0.015962219,0.029353332,-0.050801087,77.65509668,12.85003539,4.44
152145608137,0.054011535,-0.36411133,9.69812,-0.028356934,-0.0019134522,-0.049093626,77.65509668,12.85003539,4.44
152145608159,0.038928222,-0.087939456,10.218737,0.08754883,-0.0248703,-0.036206055,77.65509668,12.85003539,4.44
152145608181,-2.1820069E-4,-0.4862152,9.964953,0.012017822,-0.024021912,-0.016815186,77.65509668,12.85003539,4.44
152145608203,-0.009196472,-0.14049073,9.484438,-0.06787872,-0.01326294,0.012107849,77.65509116,12.84999115,4.6
152145608225,0.07388611,-0.29384002,10.060002,0.035191346,-0.001222229,0.0052902224,77.65509116,12.84999115,4.6
152145608247,0.014149475,-0.33897096,9.435597,-0.014825439,-0.0038269043,0.011791992,77.65509116,12.84999115,4.6
152145608269,0.08034973,-0.5026123,9.64449,0.0060012816,0.026478577,0.022071838,77.65509116,12.84999115,4.6
152145608291,0.28409424,-0.69630736,10.684053,0.034654237,0.026585389,-0.01862793,77.65508464,12.84995428,4.44
152145608313,0.08609466,-0.8214035,9.278653,-0.0026794435,-0.023272704,-0.044888306,77.65508464,12.84995428,4.44
152145608335,0.24267578,-0.5325424,9.75295,-0.09200744,-0.034831237,-0.01878662,77.65508464,12.84995428,4.44
152145608358,0.06275177,-0.5118332,9.933352,0.06240692,-0.043569945,-0.025498962,77.65508464,12.84995428,4.44
152145608379,0.05880127,-0.6908005,10.143562,0.025550842,-0.04612427,0.027452087,77.65508464,12.84995428,4.44
152145608401,0.09866333,-0.64866483,9.4194355,-0.01051178,-0.031477354,0.044708252,77.65508431,12.84991775,4.3
152145608423,-0.07084656,-0.58186495,9.676572,-0.029101562,-0.008944702,0.096214294,77.65508431,12.84991775,4.3
152145608445,0.30672303,-0.554805,10.054019,-0.020741273,0.021525573,0.07304688,77.65508431,12.84991775,4.3
152145608468,0.038928222,-0.5829407,9.68687,0.02097168,0.009700012,0.044657897,77.65508431,12.84991775,4.3
152145608489,0.101297,-0.64758456,9.933706,0.043447874,0.043418884,0.07901154,77.6550818,12.84987882,4.4
152145608512,0.2648224,-1.1597046,9.884504,8.346558E-4,0.032072447,0.022229005,77.6550818,12.84987882,4.4
152145608534,0.23285675,-1.139354,9.408063,-0.018234253,0.022216797,4.9591064E-4,77.6550818,12.84987882,4.4
152145608556,0.17013092,-1.2722366,10.017507,0.045793153,0.06365814,0.014450073,77.6550818,12.84987882,4.4
152145608578,0.54889524,-1.0069535,10.225683,0.04557953,0.03260193,-0.051545717,77.6550818,12.84987882,4.4
152145608600,0.304924,-0.9824127,7.6543093,0.06874542,0.036869813,-0.1594574,77.6550785,12.84984389,3.99
152145608622,0.13517304,-1.3063492,12.116266,-0.2458847,-0.06529693,-0.11892243,77.6550785,12.84984389,3.99
152145608644,0.23202363,-1.5505584,10.314146,-0.10681305,-0.00793457,-0.10220184,77.6550785,12.84984389,3.99
152145608666,0.017619323,-0.27145386,9.193064,0.2232666,-0.05038605,-0.032048035,77.6550785,12.84984389,3.99
152145608688,-0.07383881,-0.84570616,11.165884,-0.07932739,-0.13661805,-0.07626037,77.65507355,12.84981911,2.28
152145608710,-0.9863922,0.09653626,7.766838,0.02224121,0.06248627,0.18015595,77.65507355,12.84981911,2.28
152145608732,0.98296356,-0.607605,11.170794,0.1041687,0.15926667,0.17983398,77.65507355,12.84981911,2.28
152145608754,0.7620972,0.08336792,9.249084,-0.110910036,0.018702697,-0.15210876,77.65507355,12.84981911,2.28
152145608776,0.08382263,0.13986817,10.287813,0.12184906,-0.050973512,-0.21442413,77.65507355,12.84981911,2.28
152145608798,-0.32151946,0.64049834,9.448286,0.07700501,-0.06519623,-0.07631378,77.65507503,12.84980273,1.96
152145608820,0.01282959,0.40778503,9.619351,0.031091308,-0.04628296,0.0050750733,77.65507503,12.84980273,1.96
152145608842,-0.030023193,0.43292084,10.53573,-0.08439026,-0.10721741,0.03117981,77.65507503,12.84980273,1.96
152145608864,-0.52395475,0.6834747,8.807597,0.09394226,-0.05997467,0.15927735,77.65507503,12.84980273,1.96
152145608886,-0.17762908,0.3440979,10.659752,-0.03197937,0.08789673,0.28647155,77.65507517,12.84978631,1.6
152145608908,0.63891447,0.7476349,9.344259,0.008021546,0.08736114,0.14979859,77.65507517,12.84978631,1.6
152145608930,0.099264525,0.4780487,10.325763,0.06816254,0.045071412,-0.041960143,77.65507517,12.84978631,1.6
152145608952,0.09998169,0.63259584,9.573143,-0.10638733,0.017478943,0.0015640259,77.65507517,12.84978631,1.6
152145608974,0.06406555,0.5845947,10.185343,0.009622192,0.04448242,-0.009838867,77.65507517,12.84978631,1.6
152145608996,0.06837616,0.38036805,10.071854,0.008612061,0.029573059,-0.022784423,77.65507762,12.84977046,1.64
152145609018,0.2049652,-0.5610367,10.189529,-0.0139221195,0.026104737,-0.052131653,77.65507762,12.84977046,1.64
152145609040,0.09806824,-0.48465577,9.647723,-0.03006134,0.0024032593,-0.07141419,77.65507762,12.84977046,1.64
152145609063,-4.5776367E-4,-0.18993226,9.878163,-0.042207338,0.021366883,-0.05682068,77.65507762,12.84977046,1.64
152145609084,0.22184601,-0.09224548,9.916829,0.028321838,0.030955505,-0.07908173,77.65507762,12.84977046,1.64
152145609106,0.28960267,-0.18227081,10.214668,0.032684326,-0.0013259888,-0.14971161,77.65507959,12.84975207,1.7
152145609128,0.1425995,-0.18298797,11.087355,0.094529726,-0.05699005,-0.15700683,77.65507959,12.84975207,1.7
152145609151,-0.03828583,-0.2108841,8.590563,0.06358185,-0.09528808,-0.10912323,77.65507959,12.84975207,1.7
152145609173,-0.03146515,-0.3504654,10.604803,-0.15517578,-0.114463806,-0.03785553,77.65507959,12.84975207,1.7
152145609195,-0.40340424,0.4895447,8.826872,0.029599,-0.06865387,0.11735992,77.65507962,12.84973299,1.8
152145609217,-0.07192536,0.24186555,10.586609,0.0652832,0.056628417,0.17786713,77.65507962,12.84973299,1.8
152145609239,0.2321411,0.3624115,9.486113,-0.045930482,0.06152649,0.119651794,77.65507962,12.84973299,1.8
152145609261,0.3299454,0.44105834,9.72733,0.032208253,0.047572326,-0.0014755249,77.65507962,12.84973299,1.8
152145609283,0.08609619,0.3995239,9.809334,-0.058451843,0.0016036987,-0.024700928,77.65507962,12.84973299,1.8
152145609305,-0.08904266,0.4617691,9.844528,0.0041885376,0.022431945,0.018182373,77.655078,12.84971407,1.67
152145609327,0.34861907,0.3215912,9.551473,-0.00859375,0.03377533,-0.018467713,77.655078,12.84971407,1.67
152145609349,0.052815247,0.4201126,9.768511,-0.023988342,0.022323608,-0.048562624,77.655078,12.84971407,1.67
152145609371,0.09411164,0.4636856,9.715715,3.5095215E-4,0.037506104,-0.031999208,77.655078,12.84971407,1.67
152145609393,0.12559967,0.3784546,9.885104,-0.0050765993,0.036065675,-0.067733765,77.65507536,12.84968898,1.75
152145609415,0.21418457,0.16189423,9.706378,-0.011100769,-0.0063354494,-0.1036911,77.65507536,12.84968898,1.75
152145609437,0.1256012,0.32877502,10.235258,0.07668152,-0.05315552,-0.09895019,77.65507536,12.84968898,1.75
152145609459,-0.05743866,0.15327606,9.710568,0.011222839,-0.0696701,-0.053889465,77.65507536,12.84968898,1.75
152145609481,-0.018652344,0.3158432,9.927244,-0.047688294,-0.06647034,0.0033706664,77.65507536,12.84968898,1.75
152145609503,0.04814758,0.05607147,9.844287,0.050962828,-0.041116334,0.019140625,77.65507139,12.84966237,1.86
152145609525,0.0289917,0.44154206,9.830162,-0.009020996,-0.06274261,0.027452087,77.65507139,12.84966237,1.86
152145609547,-0.023918152,0.17686157,9.877922,-0.008914185,-0.02545929,0.063775636,77.65507139,12.84966237,1.86
152145609569,0.008525086,0.08156891,9.826924,-0.028839111,0.0011795044,0.108407594,77.65507139,12.84966237,1.86
152145609591,0.118536375,0.009381103,9.637668,0.0012573242,0.051089477,0.093710326,77.65506782,12.84963541,1.92
152145609613,0.116859436,0.0713974,9.753906,-0.032832336,0.07089996,0.057437133,77.65506782,12.84963541,1.92
152145609635,0.18006745,-0.06950226,9.6892605,-0.01525116,0.091357425,0.01690216,77.65506782,12.84963541,1.92
152145609657,0.3056427,-0.09943237,9.662567,-0.022550965,0.06072693,-0.026672363,77.65506782,12.84963541,1.92
152145609679,0.32922667,-0.21459046,10.084422,0.013191223,0.011935425,-0.09724579,77.65506782,12.84963541,1.92
152145609701,0.0011016845,-0.4690979,9.728045,0.0068542482,-0.07078705,-0.07114563,77.65506924,12.84958249,1.99
152145609723,0.09615173,-0.6728455,9.881996,-0.0019348145,-0.060505677,-0.02752533,77.65506924,12.84958249,1.99
152145609745,-0.049061585,-0.71342623,9.837703,-0.00582428,-0.045007326,0.0146133425,77.65506924,12.84958249,1.99
152145609768,-0.010154724,-0.59826505,9.710332,0.0032852173,0.01614685,0.064309694,77.65506924,12.84958249,1.99
152145609789,0.22567597,-0.68613434,10.040131,-0.007420349,0.04165802,0.023030091,77.65509472,12.8494591,4.93
152145609812,0.2411209,-0.6339401,9.695127,-0.039167784,0.033885192,-0.0063720704,77.65509472,12.8494591,4.93
152145609834,0.35400543,-0.79961854,9.672503,0.0046173097,0.037823487,-0.029019166,77.65509472,12.8494591,4.93
152145609820,0.13470002,-0.6101181,10.060244,-0.0020446777,0.036920168,-0.04169464,77.65509472,12.8494591,4.93
152145609842,0.10752411,-0.5489441,9.751993,0.02080841,0.040434264,-0.049041748,77.65509472,12.8494591,4.93
152145609864,0.31713563,-0.7002579,9.900072,-0.0046508787,0.013642883,-0.09841919,77.65508647,12.84941445,4.45
152145609886,0.36980897,-0.6484253,9.492337,0.009835815,-0.042662047,-0.12132263,77.65508647,12.84941445,4.45
152145609908,0.16989136,-0.70792234,9.945442,-0.0034271241,-0.09859009,-0.10864258,77.65508647,12.84941445,4.45
152145609930,-0.1256775,-0.31873932,9.655025,0.02129059,-0.11691284,-0.014845276,77.65508647,12.84941445,4.45
152145609952,-0.33624727,-0.24081115,10.085623,0.01644287,-0.043833923,0.1059082,77.65506523,12.84937056,4.52
152145609974,0.13039093,-0.07836151,10.017027,0.041851807,0.04171295,0.13115387,77.65506523,12.84937056,4.52
152145609996,0.28589478,-0.30042267,9.610616,0.012287903,0.055401612,0.039437868,77.65506523,12.84937056,4.52
152145610018,0.28325957,-0.04352417,9.847278,-0.03943634,0.039848328,-5.187988E-4,77.65506523,12.84937056,4.52
152145610040,0.3034912,0.0017272949,10.40788,0.063742064,0.008155823,-0.036206055,77.65506523,12.84937056,4.52
152145610062,0.116500854,-0.23733978,9.144223,0.014254761,-0.03477936,-0.04685669,77.65507288,12.84931283,4.64
152145610084,0.18557282,-0.15880737,9.995481,-0.06170044,-0.06040039,-0.020761108,77.65507288,12.84931283,4.64
152145610106,0.31737822,0.051765442,9.98674,0.07673798,-0.13491821,-0.023101807,77.65507288,12.84931283,4.64
152145610128,0.08549347,-0.382547,10.173968,-0.007525635,-0.20021363,0.030696105,77.65507288,12.84931283,4.64
152145610150,-0.40208435,-0.04400482,9.19426,0.046057127,-0.15717927,0.23246154,77.65506144,12.84927221,4.47
152145610172,-0.29865417,-0.46850127,10.583257,0.017294312,-0.014801025,0.3576309,77.65506144,12.84927221,4.47
152145610194,0.2521347,-0.31395417,9.279254,0.015429688,0.11228943,0.36652526,77.65506144,12.84927221,4.47
152145610216,0.38010406,-0.22847748,10.019902,-2.8381348E-4,0.20043793,0.2573349,77.65506144,12.84927221,4.47
152145610238,0.49658507,-0.14228821,9.720148,0.0060012816,0.21652527,0.13195038,77.65506144,12.84927221,4.47
152145610260,0.53165895,-0.1764038,9.748398,0.0027511597,0.21209869,-0.0014755249,77.65506155,12.84922647,4.19
152145610282,0.6422699,-0.19472198,9.69034,-0.073632814,0.120593265,-0.14225312,77.65506155,12.84922647,4.19
152145610304,0.35376891,-0.17712097,9.448883,0.007333374,-0.02093048,-0.23897858,77.65506155,12.84922647,4.19
152145610326,-0.04008026,-0.14216766,10.148827,-0.0034271241,-0.11057434,-0.17181396,77.65506155,12.84922647,4.19
152145610348,-0.41226044,-0.10146637,9.798076,-0.005555725,-0.09832458,-0.031941224,77.65506155,12.84922647,4.19
152145610370,-0.06761475,-0.19711456,9.782158,0.033166505,-0.025402833,0.05440216,77.65507615,12.84918085,4.55
152145610393,0.0025375367,-0.027365113,9.981955,1.4343261E-4,0.025839234,0.035494994,77.65507615,12.84918085,4.55
152145610415,0.22172546,-0.14360504,9.759168,0.0016845703,0.012843323,-0.024861146,77.65507615,12.84918085,4.55
152145610437,-0.034695435,-0.82080686,9.373346,-0.01770172,0.021157837,-0.006112671,77.65507615,12.84918085,4.55
152145610459,0.27798766,-0.56570435,10.010203,0.016334534,0.039793395,-0.016870117,77.65507609,12.84913839,4.42
152145610481,0.38536835,-1.14534,9.830521,0.0072769164,0.03841095,-0.07790985,77.65507609,12.84913839,4.42
152145610503,0.46665496,-0.9901978,9.446131,-0.012481689,-0.043301392,-0.12084045,77.65507609,12.84913839,4.42
152145610525,0.18246154,-0.7159424,9.936583,-0.005718994,-0.053581238,-0.07567444,77.65507609,12.84913839,4.42
152145610547,0.20293275,-0.69510955,9.576253,-0.003691101,-0.11116028,-0.060333252,77.65507609,12.84913839,4.42
152145610569,0.089804076,-0.8416351,9.694407,0.010050965,-0.14471893,0.0336792,77.6550616,12.8491135,3.98
152145610623,-0.008236694,-0.86401826,10.432899,-0.056263734,-0.068762206,0.14020996,77.6550616,12.8491135,3.98
152145610645,-0.005006409,-0.79698485,9.077063,0.09698029,-0.011233521,0.22484589,77.6550616,12.8491135,3.98
152145610667,-0.027272034,-0.63010865,10.074011,0.006959534,0.07713318,0.24039765,77.6550616,12.8491135,3.98
152145610689,0.19934234,-0.54870605,9.676096,0.008399963,0.19303131,0.19517823,77.65506119,12.84907916,3.74
152145610711,0.59917605,-0.27863923,9.758214,-0.010566711,0.28321075,0.077674866,77.65506119,12.84907916,3.74
152145610733,1.0881913,-0.28318787,10.114113,0.03417816,0.2271759,-0.23067017,77.65506119,12.84907916,3.74
152145610755,0.6721985,-0.28497925,9.571587,0.0462204,0.019822692,-0.46401674,77.65506119,12.84907916,3.74
152145610777,0.34921876,-0.8789856,10.320612,-0.036454774,-0.12820283,-0.43392485,77.65506119,12.84907916,3.74
152145610799,-0.29194793,-0.7762772,7.8919344,-0.05951538,-0.23350677,-0.30747527,77.65506718,12.84905046,3.48
152145610821,-0.98531497,-1.0048034,11.569786,-0.015730286,-0.14449921,0.028193664,77.65506718,12.84905046,3.48
152145610843,0.07256927,-0.6921204,7.3910675,0.043286134,0.003363037,0.21238098,77.65506718,12.84905046,3.48
152145610809,0.7661697,-1.0834488,11.337189,-0.04683838,0.06035309,-0.019265747,77.65506718,12.84905046,3.48
152145610831,0.18389893,-0.3947571,8.724278,0.122384645,0.020033265,-0.05442047,77.65507244,12.84901594,3.43
152145610853,-0.23963928,-0.047953796,11.102678,0.0342865,0.012043762,-0.019052124,77.65507244,12.84901594,3.43
152145610875,0.26542053,0.04577942,9.3216305,-0.043589782,0.010603333,-0.0431839,77.65507244,12.84901594,3.43
152145610897,0.15313263,-6.668091E-4,10.38011,0.09122467,0.0073013306,-0.08355713,77.65507244,12.84901594,3.43
152145610919,0.28565216,0.05990448,9.92509,0.01782837,-0.040368654,-0.09293213,77.65507244,12.84901594,3.43
152145610941,0.1794693,0.15399627,9.831598,0.017507935,-0.08762054,-0.10161438,77.65507587,12.84898017,3.51
152145610963,-0.08329926,0.113652036,9.729124,-0.021008302,-0.13507538,-0.017723083,77.65507587,12.84898017,3.51
152145610985,0.013549805,0.108746335,9.305351,-0.018130492,-0.11590119,0.089128114,77.65507587,12.84898017,3.51
152145611008,-0.141716,0.09378357,10.204013,0.009034729,-0.069187924,0.17610931,77.65507587,12.84898017,3.51
152145611029,-0.177388,-0.055258177,9.669748,0.021075439,0.03175049,0.26239625,77.65507587,12.84898017,3.51
152145611051,0.17934875,0.0050750733,10.00841,0.026509095,0.14467163,0.21759948,77.65507749,12.84896221,3.18
152145611073,0.541832,0.1617752,9.721225,-0.016635131,0.16576385,0.096961975,77.65507749,12.84896221,3.18
152145611095,0.54805756,0.035723876,9.445532,-0.07442932,0.0967865,-0.06576538,77.65507749,12.84896221,3.18
152145611118,0.25021514,0.39533234,9.713442,0.09106445,0.010336304,-0.115464784,77.65507749,12.84896221,3.18
152145611139,0.066223145,0.17697755,11.012057,-0.027450562,-0.056243896,-0.0890976,77.65507541,12.84892683,4.15
152145611161,0.04910431,-0.21925965,8.986084,0.0050949096,-0.069293216,-0.009304809,77.65507541,12.84892683,4.15
152145611184,0.0823822,-0.45963898,10.098788,0.012767029,-0.025405884,0.027233887,77.65507541,12.84892683,4.15
152145611206,0.19060059,-0.36973724,10.180429,-0.033418275,-0.04601898,0.015467835,77.65507541,12.84892683,4.15
152145611228,0.12355957,-0.54822695,9.11178,-0.009710694,-0.024606323,0.051794432,77.65506798,12.8488891,4.43
152145611250,0.34358978,-0.47903138,10.380827,-0.065107726,-0.0018066406,0.055732727,77.65506798,12.8488891,4.43
152145611272,0.33820647,-0.75137484,9.585951,0.0722641,-0.051875304,2.2888184E-4,77.65506798,12.8488891,4.43
152145611294,-0.091436766,-0.78154147,10.013197,0.031941224,-0.053585816,0.07123413,77.65506798,12.8488891,4.43
152145611316,-0.36713105,-0.789801,9.395851,-0.043429565,0.07467957,0.19458923,77.65506798,12.8488891,4.43
152145611338,0.60312045,-0.48190612,9.696922,-0.031072998,0.1553772,0.10036926,77.65505963,12.84885445,3.85
152145611360,0.55344236,-0.65776217,9.647484,0.014842224,0.0983841,-0.10384826,77.65505963,12.84885445,3.85
152145611382,0.36789092,-0.42192993,9.66065,-0.0031066895,0.003894043,-0.15253296,77.65505963,12.84885445,3.85
152145611404,-0.026312256,-0.7773544,9.7747345,0.029759217,-0.07046509,-0.09224091,77.65505963,12.84885445,3.85
152145611426,0.02492218,-0.47771606,9.669991,-0.0061965943,-0.10940094,-0.02379303,77.65505963,12.84885445,3.85
152145611448,-0.0769516,-0.5806656,9.701235,-0.036343385,-0.04724579,0.07102051,77.65505579,12.84882064,4.02
152145611470,0.19658813,-0.47675782,9.521907,-0.047531128,-0.018214416,0.07895508,77.65505579,12.84882064,4.02
152145611492,0.21011353,-0.15138245,9.907735,0.12653656,0.009324646,0.06105957,77.65505579,12.84882064,4.02
152145611514,0.26003113,-0.7628662,9.790056,-0.07539062,-0.051878355,0.0153015135,77.65505579,12.84882064,4.02
152145611536,-0.25125122,-0.30844727,9.513646,-0.045292664,-0.029185485,0.098768614,77.65505816,12.84878468,3.99
152145611558,0.0014602661,-0.27408904,10.5649395,0.0837677,0.10850678,0.15949097,77.65505816,12.84878468,3.99
152145611580,0.47862548,-0.40576935,9.85051,0.049412537,0.145578,0.06830444,77.65505816,12.84878468,3.99
152145611602,0.27859038,-0.38996735,9.893967,-0.018821716,0.111595154,-0.08313294,77.65505816,12.84878468,3.99
152145611624,0.22352295,-0.3180252,9.636467,-0.02052765,0.08080902,-0.09554138,77.65505816,12.84878468,3.99
152145611646,0.20855713,-0.3343048,9.712245,-0.019194031,0.05497589,-0.13708802,77.65506467,12.84874773,4.04
152145611668,0.115184024,-0.516626,9.627371,9.96399E-4,0.020143127,-0.15354614,77.65506467,12.84874773,4.04
152145611690,0.15887909,-0.76466525,10.001465,0.002165222,-0.013311768,-0.15625915,77.65506467,12.84874773,4.04
152145611713,-0.006201172,-0.72635347,9.449359,0.04009094,-0.023219299,-0.14523467,77.65506467,12.84874773,4.04
152145611734,0.5186081,-0.7899216,10.399023,0.026454162,-0.0748352,-0.18486328,77.65506577,12.84870679,4.53
152145611756,-0.019488525,-0.91777194,9.771385,0.026771545,-0.16740417,-0.13277435,77.65506577,12.84870679,4.53
152145611778,0.20616455,-1.286,10.095558,0.034605406,-0.25273436,-0.07966919,77.65506577,12.84870679,4.53
152145611800,-0.51102144,-1.807579,9.170198,0.0568161,-0.22428894,0.14063111,77.65506577,12.84870679,4.53
152145611823,-0.40567628,-1.4406677,9.607259,-0.08343353,-0.0736084,0.374942,77.65506577,12.84870679,4.53
152145611845,0.03821106,-1.3245453,9.530647,0.04573517,0.10051727,0.43076172,77.65506396,12.84866485,4.3
152145611867,0.6492111,-1.2182419,10.519449,0.1396927,0.1719925,0.27981263,77.65506396,12.84866485,4.3
152145611889,0.45144805,-1.0633361,10.121176,-0.04417572,0.12794647,0.059194945,77.65506396,12.84866485,4.3
152145611911,0.026119996,0.3173996,9.089872,-0.025213623,-0.0042037964,0.013174439,77.65506396,12.84866485,4.3
152145611933,-0.13824463,0.3182373,9.656461,0.097457886,0.04282837,0.05472107,77.6550616,12.84862956,3.21
152145611955,0.15899658,0.1548355,9.703387,-0.04779663,0.09875641,0.07751922,77.6550616,12.84862956,3.21
152145611977,0.027436828,0.41412657,9.702191,-0.027188111,0.091407776,-3.5095214E-5,77.6550616,12.84862956,3.21
152145611999,0.09603272,0.49038237,9.899114,-0.021911621,0.09290008,-0.06464996,77.6550616,12.84862956,3.21
152145612021,0.15325013,0.6067398,10.017626,-0.0064117434,0.079156496,-0.12020264,77.6550616,12.84862956,3.21
152145612043,0.28720856,0.49001923,10.0369005,0.0076034544,0.04916992,-0.18315735,77.65505932,12.84860005,3.06
152145612065,0.32192534,0.36695862,9.760729,0.029013062,-0.04798889,-0.2456375,77.65505932,12.84860005,3.06
152145612087,0.27092895,-0.7830963,10.153618,0.013456726,-0.19584656,-0.24238586,77.65505932,12.84860005,3.06
152145612109,-0.4810974,-0.85971224,9.204435,0.014045715,-0.26072234,-0.058895875,77.65505932,12.84860005,3.06
152145612131,-0.7681595,-0.7310211,10.155176,-0.020739745,-0.08564301,0.22564392,77.65503391,12.84854422,5.06
152145612153,0.3610657,-0.5779144,9.719667,0.040197752,0.15138245,0.2697464,77.65503391,12.84854422,5.06
152145612175,0.8964157,-0.6430405,9.988894,-0.0031066895,0.13945313,-0.009091186,77.65503391,12.84854422,5.06
152145612197,0.34586638,-0.48477936,9.846802,0.031195069,0.010820007,-0.11833801,77.65503391,12.84854422,5.06
152145612219,0.31689605,-0.6546494,9.516397,-0.029208373,-0.054753114,-0.08477936,77.65503391,12.84854422,5.06
152145612241,0.24386902,-0.5657074,10.184384,-0.04588165,-0.1271408,-0.066459656,77.65502574,12.84850131,4.65
152145612263,-0.07467804,-0.59216005,9.395613,0.08462219,-0.121974185,0.04449463,77.65502574,12.84850131,4.65
152145612285,-0.025355529,-0.64423674,10.146434,-0.04577484,-0.088308714,0.14420319,77.65502574,12.84850131,4.65
152145612307,-0.52526855,-0.6694916,9.5934925,0.0051467894,0.06717072,0.2824768,77.65502574,12.84850131,4.65
152145612329,0.54482573,-0.92303926,10.070419,-0.036505125,0.22067872,0.21179505,77.6550267,12.84846707,4.46
152145612351,0.8239914,-0.7098358,8.425003,0.021876525,0.18030396,-0.046055604,77.6550267,12.84846707,4.46
152145612373,0.5792999,-0.98744357,11.858648,-0.14084625,0.083682254,-0.16483612,77.6550267,12.84846707,4.46
152145612395,0.07831268,-0.5064484,8.922995,0.22710267,0.041552734,-0.16819,77.6550267,12.84846707,4.46
152145612418,0.39387053,-0.57108915,11.019838,0.011540222,-0.0041519166,-0.19999084,77.6550267,12.84846707,4.46
152145612439,0.19970092,-0.33011016,8.882774,0.0022186278,-0.13171844,-0.19919434,77.65502784,12.84843238,4.28
152145612461,-0.033615112,-0.64782715,9.874092,-0.015466308,-0.23276062,-0.13420868,77.65502784,12.84843238,4.28
152145612483,-0.4566757,-0.25948182,9.655742,-0.0020965575,-0.20437165,0.07037964,77.65502784,12.84843238,4.28
152145612505,-0.6673645,-0.36782074,9.774733,0.09964295,-0.0029800416,0.32093352,77.65502784,12.84843238,4.28
152145612528,0.27583313,-0.3618347,10.46199,-0.058876038,0.17236939,0.27714843,77.65502967,12.84840216,3.77
152145612549,0.808667,-0.14971009,9.061502,0.036842346,0.15047607,0.027075196,77.65502967,12.84840216,3.77
152145612572,0.39075774,-0.32675934,10.486055,-0.025265504,0.059127808,-0.09575653,77.65502967,12.84840216,3.77
152145612594,0.15349427,-0.22907409,9.31014,0.017718505,0.016944885,-0.07849731,77.65502967,12.84840216,3.77
152145612616,0.18521424,-0.7899231,10.538602,-0.0076904297,0.012684631,-0.062254332,77.65502967,12.84840216,3.77
152145612638,0.07436371,-0.71533966,9.604627,-0.009870911,-0.0133102415,-0.054792784,77.65502919,12.84837072,3.9
152145612660,0.04191742,-0.33753508,10.195516,0.031462096,-0.018959045,-0.02757721,77.65502919,12.84837072,3.9
152145612682,-0.016378785,-0.65584564,9.796165,-0.007154846,0.021684265,-0.030453492,77.65502919,12.84837072,3.9
152145612704,0.5621826,-1.020726,9.2777,-0.030540466,0.014067078,-0.060865782,77.65502919,12.84837072,3.9
152145612726,0.4459427,-0.9303421,10.1015415,-0.012269592,-0.08532715,-0.15344086,77.65502919,12.84837072,3.9
152145612748,-0.43261108,-0.99163514,9.633357,0.024803162,-0.10189209,-0.011436462,77.65503501,12.84832858,4.36
152145612770,-0.843219,-1.2576325,10.005536,0.016067505,0.12565461,0.2506241,77.65503501,12.84832858,4.36
152145612792,0.9232315,-0.69295657,9.771742,-0.028092956,0.2810257,0.089076236,77.65503501,12.84832858,4.36
152145612814,1.3485596,-0.69810486,10.5073595,0.029599,0.17231445,-0.29682463,77.65503501,12.84832858,4.36
152145612836,0.72570646,-0.8583954,9.704224,0.09676208,-0.10764618,-0.5438034,77.65504391,12.84830795,0.83
152145612858,-0.3339737,-0.7999771,10.066469,-0.0106689455,-0.29619294,-0.35088652,77.65504391,12.84830795,0.83
152145612880,-0.7395477,-0.72479856,9.309543,-0.024893189,-0.2666336,0.008912658,77.65504391,12.84830795,0.83
152145612902,-0.6817276,-0.88532716,10.787363,0.012976075,-0.14988251,0.2344284,77.65504391,12.84830795,0.83
152145612924,-0.051690675,-0.67930907,8.740321,0.19711304,-0.015710449,0.34804076,77.65504391,12.84830795,0.83
152145612946,0.1161438,-1.1923889,10.881215,-0.07570954,-0.009315491,0.24183503,77.65504866,12.84830093,0.82
152145612968,0.118774414,-0.3043747,8.441286,-0.042526245,0.012893677,0.26692048,77.65504866,12.84830093,0.82
152145613014,-0.011709595,-0.8172165,10.534533,0.016653443,0.14616089,0.24950561,77.65504866,12.84830093,0.82
152145613036,0.59953153,-0.23829193,9.098851,-0.052590944,0.19841461,0.17344666,77.65504866,12.84830093,0.82
152145613058,0.76617277,-0.2052536,10.296788,0.038656615,0.18285981,-0.052394103,77.65505709,12.848285,1.61
152145613080,0.4929901,-0.1779602,9.733316,0.027946472,0.049913026,-0.22220154,77.65505709,12.848285,1.61
152145613102,0.3455078,-0.14827117,10.029119,0.053941347,-0.06695251,-0.24808808,77.65505709,12.848285,1.61
152145613124,-0.2694458,-0.04663696,9.868947,0.0068557737,-0.15744476,-0.16302642,77.65505709,12.848285,1.61
152145613147,-0.41453704,-0.05094757,9.680881,0.039132692,-0.1344345,0.042681884,77.65505709,12.848285,1.61
152145613168,-0.13321534,-0.1686203,9.805979,0.011862183,-0.013899231,0.14308472,77.65506489,12.84826384,1.69
152145613190,0.35256958,-0.4621521,9.890973,-0.049609374,0.016941834,0.10904999,77.65506489,12.84826384,1.69
152145613212,0.28529358,-0.6963089,9.521906,0.0028060912,-0.011930848,0.018128967,77.65506489,12.84826384,1.69
152145613234,0.04790344,-0.95296323,10.215625,-0.046466064,-0.0054824827,0.06303253,77.65506489,12.84826384,1.69
152145613255,-0.007519531,-0.6133453,9.211737,0.03300934,0.047039796,0.09237671,77.6550709,12.84823702,0.19
152145613277,0.5648163,-0.8775482,9.827887,0.00307312,0.06312408,0.032296754,77.6550709,12.84823702,0.19
152145613300,0.48484954,-1.028981,9.659933,-0.014135743,-0.04511261,-0.09287872,77.6550709,12.84823702,0.19
152145613322,-0.048101805,-1.1952636,9.751271,0.030717468,-0.051344298,0.0089675905,77.6550709,12.84823702,0.19
152145613344,0.25440675,-1.323233,9.904737,-0.014665222,-0.023649598,0.07011261,77.6550709,12.84823702,0.19
152145613366,0.3498169,-1.6107757,9.282605,-0.056108095,-0.031207275,0.054081727,77.65508723,12.8481429,3.77
152145613388,0.3589142,-1.8875458,9.913002,-0.3289215,-0.06316986,0.103459165,77.65508723,12.8481429,3.77
152145613410,0.0054122927,-0.7049271,8.958789,0.29410553,0.039900206,0.14303437,77.65508723,12.8481429,3.77
152145613432,-0.11884918,-1.1883194,7.7290053,0.24824372,0.17854615,0.22005157,77.65508723,12.8481429,3.77
152145613454,0.55129087,-0.45641023,10.413028,-0.28258055,0.10355377,0.16433564,77.65509816,12.8481192,3.15
152145613476,0.6288605,-0.2336258,9.122914,0.11732636,0.14520416,-0.11503754,77.65509816,12.8481192,3.15
152145613498,0.77275544,-0.11319733,11.188751,-0.0016159058,-0.052941896,-0.3634018,77.65509816,12.8481192,3.15
152145613520,-0.4954605,0.50822145,9.274345,0.05473938,-0.048890688,-0.24041748,77.65509816,12.8481192,3.15
152145613542,-0.17607269,0.31165466,10.155172,0.011276245,-0.0065994263,-0.027842712,77.65509816,12.8481192,3.15
152145613564,0.25153655,-0.23159179,9.536032,0.0033370971,-7.415771E-4,-0.096661374,77.65509075,12.84808622,2.45
152145613586,0.43289644,-0.57144773,10.030792,-0.023884583,-0.107113644,-0.17783508,77.65509075,12.84808622,2.45
152145613608,-0.16793212,-0.7389267,9.418836,-0.009074402,-0.0945404,-0.08685608,77.65509075,12.84808622,2.45
152145613630,0.13338013,-0.7330612,10.134463,0.021980286,-0.07743988,0.051948547,77.65509075,12.84808622,2.45
152145613652,-0.09000244,-0.74670565,9.846438,-0.0114685055,-0.06993256,0.10462646,77.65510023,12.84805544,3.02
152145613674,-0.19283143,-0.67248535,10.126683,0.0919693,0.025253296,0.23730774,77.65510023,12.84805544,3.02
152145613696,0.08657227,-0.49830475,10.3927965,6.744385E-4,0.073086545,0.20135804,77.65510023,12.84805544,3.02
152145613718,0.33114165,-0.44766846,10.301457,0.14310303,0.113780215,0.11304474,77.65510023,12.84805544,3.02
152145613740,0.03880615,0.46272582,8.483299,0.1730896,0.14429931,0.050727844,77.65510023,12.84805544,3.02
152145613762,0.3040863,-0.20249939,10.642154,-0.22164917,0.161557,-0.031037902,77.65509522,12.84803202,2.58
152145613784,0.7076294,0.27706146,8.914259,-0.13184968,0.10743866,-0.23344116,77.65509522,12.84803202,2.58
152145613807,0.13673249,0.17602234,10.317021,0.12265015,0.058280945,-0.4000992,77.65509522,12.84803202,2.58
152145613828,-0.12747192,0.2459381,9.713081,-0.029849242,0.045762636,-0.28185576,77.65509522,12.84803202,2.58
152145613850,0.25368804,0.40993804,9.806818,0.106300354,0.08490906,-0.339859,77.65508741,12.84801337,2.08
152145613872,0.2614685,0.12143402,9.910365,0.013085937,0.020994568,-0.4306732,77.65508741,12.84801337,2.08
152145613895,-0.42375183,-0.3995468,9.5928955,0.0064819334,-0.024551392,-0.39967346,77.65508741,12.84801337,2.08
152145613921,0.030786132,-0.7505371,9.879839,-0.005183411,-0.032595824,-0.3425232,77.65508741,12.84801337,2.08
152145613943,-0.24155578,-0.61957246,9.527414,-0.025372315,-0.021995544,-0.2935196,77.65508741,12.84801337,2.08
152145613965,0.05101929,-0.6779938,9.887744,0.012124633,0.018917847,-0.28483278,77.65507853,12.84798631,3.09
152145613987,-0.0039260862,-0.5928772,9.694288,0.053460695,0.012843323,-0.31621093,77.65507853,12.84798631,3.09
152145614009,-0.034934998,-0.837088,9.585353,-0.028515626,0.02392273,-0.30476075,77.65507853,12.84798631,3.09
152145614031,0.005050659,-0.45604247,10.202339,0.08568573,0.06301727,-0.3060379,77.65507853,12.84798631,3.09
152145614053,0.2527298,-0.44335938,9.842489,0.108644105,0.05870514,-0.36984557,77.65507853,12.84798631,3.09
152145614075,-0.07012634,-0.18035737,9.554944,0.054312132,0.010868835,-0.41565093,77.65506166,12.84795777,2.91
152145614097,0.020733643,-0.0015060424,10.20222,0.106515504,0.025680542,-0.3573288,77.65506166,12.84795777,2.91
152145614119,-0.23041992,-0.34555665,10.029478,0.07066498,0.028555298,-0.38875732,77.65506166,12.84795777,2.91
152145614141,0.16294709,0.070201114,9.9197035,-0.024946595,-0.07126465,-0.39429322,77.65506166,12.84795777,2.91
152145614163,-0.32068482,-0.06735077,9.447568,0.09026642,-0.053048708,-0.34757996,77.65504071,12.84794247,3.1
152145614185,-0.18588868,-0.036463927,9.914436,-0.0692627,-0.049960326,-0.24350281,77.65504071,12.84794247,3.1
152145614207,-0.18325348,0.06385193,9.333605,0.045895386,0.007409668,-0.21234588,77.65504071,12.84794247,3.1
152145614229,-0.055519104,0.100724794,10.314868,-0.05621338,-0.0085723875,-0.21389008,77.65504071,12.84794247,3.1
152145614251,-0.050975036,0.4013153,9.634555,0.114500426,-0.016934205,-0.22214508,77.65504071,12.84794247,3.1
152145614273,0.103572085,-0.22225037,10.298706,-0.02659912,-0.058641054,-0.22134857,77.65500782,12.84793753,3.36
152145614295,-0.04499054,0.026983643,8.998772,0.014099121,-0.096243285,-0.16462402,77.65500782,12.84793753,3.36
152145614317,-0.1912735,-0.151503,10.135541,0.052714538,-0.09113312,-0.10119019,77.65500782,12.84793753,3.36
152145614339,-0.27794495,-0.06830597,9.357065,-0.04369812,-0.062420655,-0.024697876,77.65500782,12.84793753,3.36
152145614361,-0.10149231,-0.099787906,10.004936,0.021392822,0.0313797,0.01796875,77.65496638,12.84793156,4.7
152145614383,0.040483095,-0.15054779,9.913721,-0.040496826,0.06434937,-0.027684022,77.65496638,12.84793156,4.7
152145614405,0.28337708,-0.19160767,9.658735,-0.034269713,0.044909667,-0.084674075,77.65496638,12.84793156,4.7
152145614427,0.23488922,0.021954346,9.730799,0.096495055,-0.020077515,-0.13937683,77.65496638,12.84793156,4.7
152145614449,7.415771E-4,-0.13247223,10.149904,0.04647827,-0.09326477,-0.118551634,77.65496638,12.84793156,4.7
152145614471,0.018458556,-0.103982545,9.67322,-0.067401126,-0.123249814,-0.046592712,77.65492748,12.84793018,4.61
152145614493,-0.15308532,0.03296814,9.818907,0.055644225,-0.110629275,0.023402404,77.65492748,12.84793018,4.61
152145614516,-0.03553314,-0.06327667,9.939337,0.06725617,-0.07515411,0.06744842,77.65492748,12.84793018,4.61
152145614537,-0.10209198,-0.14408417,8.940237,-0.08124848,-0.023379516,0.107507326,77.65492748,12.84793018,4.61
152145614559,0.067782596,-0.3185028,9.328096,-0.08934174,0.07329712,0.11539002,77.65489904,12.84793053,1.55
152145614581,0.3423935,-0.412117,9.765875,0.04941406,0.16800232,0.065107726,77.65489904,12.84793053,1.55
152145614603,0.6132965,-0.18766022,10.387052,0.018197631,0.087947085,-0.07993927,77.65489904,12.84793053,1.55
152145614626,0.46066743,-0.82092285,10.075086,0.04009094,-0.073451236,-0.15141296,77.65489904,12.84793053,1.55
152145614648,-0.15643921,-1.2346466,9.263094,-0.12327423,-0.19318542,-0.04930725,77.65489904,12.84793053,1.55
152145614670,-0.46541137,-0.42265016,10.034027,0.08765717,-0.056507874,0.13408355,77.65486789,12.84793484,1.72
152145614692,0.13780975,-1.1172073,9.809927,0.007118225,0.11308594,0.12891845,77.65486789,12.84793484,1.72
152145614714,0.35185242,-0.51841736,9.883432,0.018519592,0.120010376,0.027554322,77.65486789,12.84793484,1.72
152145614736,0.4142212,-0.87575376,9.980756,0.062783815,0.07995758,-0.070028685,77.65486789,12.84793484,1.72
152145614758,0.4004547,-0.83038485,9.498082,-0.020578003,-0.006602478,-0.101135254,77.65483847,12.84792892,1.86
152145614780,0.19886322,-0.7651367,8.65772,-0.10351257,-0.052622985,-0.07567444,77.65483847,12.84792892,1.86
152145614802,0.09028168,-0.497348,9.6130085,0.0049377442,-0.08085175,-0.03556671,77.65483847,12.84792892,1.86
152145614824,0.1406784,-0.82642823,10.509273,0.06587219,-0.05560913,0.0010818482,77.65483847,12.84792892,1.86
152145614846,0.14558868,-0.8210465,9.110583,0.005845642,-0.056829832,0.032881163,77.65483847,12.84792892,1.86
152145614868,0.18090668,-0.7808197,9.301402,-0.06543274,-0.038668822,0.04337921,77.65480582,12.84793989,2.65
152145614890,0.12607726,-0.36842346,10.014155,0.006425476,-0.02194519,0.04801178,77.65480582,12.84793989,2.65
152145614912,0.15205078,-0.6116745,9.973093,0.057724,-0.015605164,0.05296173,77.65480582,12.84793989,2.65
152145614934,0.18473816,-0.6286682,9.456545,-0.046199035,-0.012513733,0.06713104,77.65480582,12.84793989,2.65
152145614956,-0.040560912,-0.25469667,10.203054,0.08126678,0.04687805,0.08827515,77.6547588,12.84794125,1.36
152145614978,0.16330719,-0.7718445,9.559853,-0.120341495,0.06616058,0.054455567,77.6547588,12.84794125,1.36
152145615000,0.13014679,-0.042445373,10.485453,0.12573853,0.07868042,0.030592347,77.6547588,12.84794125,1.36
152145615022,0.10321198,-0.79578704,10.358801,0.04078064,0.109198,-0.001210022,77.6547588,12.84794125,1.36
152145615044,0.22615357,-0.39810944,9.584158,-0.08550873,0.090875246,-0.022836303,77.6547588,12.84794125,1.36
152145615066,0.27619475,-0.61155397,10.211436,0.026879882,0.08634643,-0.1034256,77.65470986,12.84794785,5.25
152145615088,0.33461303,-0.5702499,9.445651,0.0068008425,-0.03696289,-0.14262696,77.65470986,12.84794785,5.25
152145615110,0.30217132,-0.65476686,9.717511,0.015696716,-0.14343719,-0.14315644,77.65470986,12.84794785,5.25
152145615132,0.12392578,-0.37596282,10.226161,0.009835815,-0.23925781,-0.064381406,77.65470986,12.84794785,5.25
152145615154,-0.38173372,-0.85719603,9.363652,0.014950561,-0.19989625,0.088969424,77.65465184,12.84795411,2.05
152145615176,-0.111306764,-0.6506958,9.189235,-0.08961029,-0.08804321,0.18857574,77.65465184,12.84795411,2.05
152145615198,-0.26669008,-0.32328796,10.195517,0.15706024,0.09790802,0.23001099,77.65465184,12.84795411,2.05
152145615221,0.39423066,-0.75101626,10.402616,-0.04689026,0.22243652,0.139888,77.65465184,12.84795411,2.05
152145615242,0.52555084,-0.307489,10.005658,0.070718385,0.17396851,0.0019302368,77.65465184,12.84795411,2.05
152145615265,0.3287506,-0.759874,10.168581,-0.12977143,0.10759888,-0.072157286,77.65461661,12.84796054,1.16
152145615288,0.15720215,0.023989867,9.565001,0.029223632,0.026428223,-0.09372864,77.65461661,12.84796054,1.16
152145615310,-0.033377074,-0.44335938,10.932211,0.033432007,-0.009640503,-0.10225372,77.65461661,12.84796054,1.16
152145615332,0.21286774,-0.55265653,9.061383,0.07439575,-0.09922943,-0.09921265,77.65461661,12.84796054,1.16
152145615354,-0.0333786,-0.48202515,10.363828,-0.05908661,-0.14167786,-0.029603576,77.65461661,12.84796054,1.16
152145615376,0.022526551,-0.6313049,10.124286,0.049569704,-0.074833676,0.055255126,77.65443746,12.84793386,5.94
152145615398,0.11577912,-0.9638626,9.617914,0.0035491944,0.023762513,0.07746582,77.65443746,12.84793386,5.94
152145615420,0.13792725,-0.7682541,9.568233,0.0039260862,0.093380734,0.07043304,77.65443746,12.84793386,5.94
152145615442,0.4926361,-0.9034058,10.203778,0.012124633,0.13769531,0.0035308837,77.65443746,12.84793386,5.94
152145615464,0.4108719,-0.65285337,9.034329,-0.05392151,0.09055786,-0.0657135,77.65439067,12.84794754,6.09
152145615486,0.32396087,-0.89861906,9.4284115,-0.048010252,0.035002135,-0.11689911,77.65439067,12.84794754,6.09
152145615508,0.26278535,-0.9296219,9.578531,0.0060546873,-0.02859955,-0.1097641,77.65439067,12.84794754,6.09
152145615530,0.0716095,-0.5463074,10.066347,0.09186401,-0.05794983,-0.08526154,77.65439067,12.84794754,6.09
152145615552,0.06275024,-0.6285492,9.960764,0.0077056885,-0.061305236,-0.04776459,77.65439067,12.84794754,6.09
152145615610,0.12428284,-0.8631836,9.5055065,-0.04028778,-0.046072386,-0.01473999,77.65432595,12.84792962,5.71
152145615632,0.08334045,-1.0218033,9.270993,-8.682251E-4,-0.014486695,0.0027893067,77.65432595,12.84792962,5.71
152145615654,0.1403244,-0.9876831,10.004099,0.035298157,0.021206666,0.01876831,77.65432595,12.84792962,5.71
152145615676,0.40296784,-1.3666885,10.298349,-7.019043E-5,0.049383543,-0.022462463,77.65432595,12.84792962,5.71
152145615698,0.37077028,-1.3839233,9.593733,0.025654603,0.013748169,-0.05623169,77.65425792,12.84791897,5.78
152145615720,0.40560302,-1.6328033,9.932152,-0.020365905,-0.021995544,-0.07695313,77.65425792,12.84791897,5.78
152145615742,0.22256775,-1.4623352,9.769829,-0.014772033,-0.05209198,-0.054156493,77.65425792,12.84791897,5.78
152145615764,0.22843018,-1.7001984,9.943166,0.051757812,-0.06945343,-0.027255248,77.65425792,12.84791897,5.78
152145615786,0.22986908,-2.049991,9.429492,-0.010351563,-0.08058624,0.012373352,77.65425792,12.84791897,5.78
152145615808,0.17348328,-2.202861,9.320555,-0.08119659,-0.07052002,0.06340484,77.65419203,12.84792605,5.85
152145615830,0.25105745,-1.9889419,9.878522,-0.036346436,-0.04218445,0.1105957,77.65419203,12.84792605,5.85
152145615852,0.28972778,-2.0022292,9.205393,0.08483429,0.011940002,0.14095458,77.65419203,12.84792605,5.85
152145615874,0.30420685,-1.9037033,10.151341,-0.042042542,0.022325134,0.121406555,77.65419203,12.84792605,5.85
152145615896,0.2077179,-1.5581039,8.764499,-0.2240982,0.03073883,0.13925019,77.65416299,12.84792128,4.02
152145615919,0.41505584,-3.0384383,12.210114,-0.43267822,0.07558899,0.10686493,77.65416299,12.84792128,4.02
152145615941,0.4732376,-0.6824188,8.427037,0.45666656,0.090237424,-9.933471E-4,77.65416299,12.84792128,4.02
152145615963,0.755513,-0.9759506,10.314984,0.43423766,0.038995363,-0.10390167,77.65416299,12.84792128,4.02
152145615985,0.17731324,-0.52835083,9.376941,-0.18005371,-0.14881745,-0.120521545,77.65416299,12.84792128,4.02
152145616007,-0.7023193,-1.1073914,9.642693,0.057347108,-0.046177674,0.03400116,77.65413776,12.84791834,2.97
152145616029,-0.1876831,-0.44024658,9.557699,-0.05435028,0.011245728,0.20071563,77.65413776,12.84791834,2.97
152145616051,0.21789551,-0.53122556,10.156252,0.020491028,0.11617279,0.15986328,77.65413776,12.84791834,2.97
152145616073,0.7042786,0.0069900514,9.185402,0.023150634,0.07420349,-0.0059509277,77.65413776,12.84791834,2.97
152145616095,0.27930602,-0.71797335,10.806036,0.029916381,0.053746033,-0.15444641,77.65411556,12.84791731,2.67
152145616117,0.312706,0.033447266,8.73541,-0.074482724,-0.07744141,-0.1529068,77.65411556,12.84791731,2.67
152145616139,-0.10365143,-0.30425566,10.1754055,0.11087799,-0.08559112,-0.09820404,77.65411556,12.84791731,2.67
152145616161,-0.41154328,-0.09404602,9.541898,-0.071928404,-0.053634644,0.07884979,77.65411556,12.84791731,2.67
152145616183,0.109436035,-0.6538086,10.150024,-0.022015382,0.043473817,0.1382904,77.65411556,12.84791731,2.67
152145616205,0.5159744,-0.53972626,9.531843,1.4190674E-4,0.06195221,-0.02261963,77.65408501,12.84791076,3.53
152145616227,0.3119873,-1.2863572,8.764501,-0.018872071,-0.00771637,-0.08366394,77.65408501,12.84791076,3.53
152145616249,-0.07683258,-0.39858398,9.600316,0.04786682,0.04560089,-0.051438905,77.65408501,12.84791076,3.53
152145616271,0.5754715,-1.1331284,8.25645,0.019264221,0.089170836,-0.0032348633,77.65408501,12.84791076,3.53
152145616293,0.6732742,-0.22728272,10.288168,0.034283448,0.05086975,-0.13271789,77.6540514,12.84790806,3.58
152145616315,0.23190308,-0.98469085,9.929281,0.16387482,-0.036265563,-0.2252365,77.6540514,12.84790806,3.58
152145616337,-0.13585205,-1.3751831,11.435232,-0.272731,-0.11749725,-0.10480652,77.6540514,12.84790806,3.58
152145616359,-0.40795287,-0.41534576,7.7333174,0.11993561,0.09252624,0.09099426,77.6540514,12.84790806,3.58
152145616381,0.7599472,-0.77208406,11.671782,0.13820648,0.123846434,-0.019319152,77.6540514,12.84790806,3.58
152145616403,1.2099365,-0.47759706,8.830584,0.063101195,-0.06524353,-0.31525117,77.65402452,12.84790702,2.91
152145616425,-0.37216187,-1.2925857,11.610727,-0.09972534,-0.13385162,-0.27285156,77.65402452,12.84790702,2.91
152145616447,-0.004525757,0.037757874,7.8041887,0.008982849,-0.0590683,0.039115906,77.65402452,12.84790702,2.91
152145616469,0.07639923,-1.0689636,12.285174,-7.0800784E-4,-0.10716553,-0.020544434,77.65402452,12.84790702,2.91
152145616492,-0.24562225,0.45554656,8.234663,-3.3874513E-4,-0.083461,0.09648438,77.65402452,12.84790702,2.91
152145616513,-0.20791778,-1.0316147,10.818248,0.08818512,0.027919006,0.20375367,77.65399996,12.84791439,2.34
152145616535,0.41410065,-0.39715117,8.474803,-0.057012938,0.0030944825,0.28598937,77.65399996,12.84791439,2.34
152145616557,-0.101371765,-0.6240036,10.911621,0.064274594,0.11388397,0.16865234,77.65399996,12.84791439,2.34
152145616579,0.9141327,-0.63465726,9.304392,-0.21248932,0.053219605,0.04406891,77.65399996,12.84791439,2.34
152145616601,0.4892807,-0.72743225,9.492818,0.04861603,4.8370362E-4,-0.17730407,77.65398441,12.84791677,1.47
152145616623,0.00947876,-0.5783936,9.578769,-0.025372315,-0.0649292,-0.101931766,77.65398441,12.84791677,1.47
152145616646,-0.169133,-0.9461441,12.851881,0.26560822,-0.02295227,0.03224182,77.65398441,12.84791677,1.47
152145616668,0.31809387,-0.8148209,4.333551,0.05617676,-0.019599915,0.06739502,77.65398441,12.84791677,1.47
152145616690,0.19873962,-1.3305328,13.290143,-0.3591736,-0.035739135,0.067985535,77.6539701,12.84791753,1.54
152145616712,7.415771E-4,-1.1586288,8.949812,-0.39075774,-0.06838532,0.1617279,77.6539701,12.84791753,1.54
152145616734,-0.120046996,1.2926819,8.030678,0.5339996,0.08362885,0.15166016,77.6539701,12.84791753,1.54
152145616756,-0.10400543,-0.69774324,13.24429,-0.007902527,0.043147277,0.08710937,77.6539701,12.84791753,1.54
152145616778,-0.13501282,0.16692504,7.202165,0.012554931,0.10552368,0.13344269,77.6539701,12.84791753,1.54
152145616800,0.45468444,-0.6284317,12.4561205,0.015484619,0.13801269,0.010881042,77.65395536,12.84791934,1.52
152145616822,0.44378662,-0.46251068,7.9375443,-0.06707306,0.06546936,-0.15652923,77.65395536,12.84791934,1.52
152145616844,0.24207611,-0.9776276,11.666395,0.06485443,0.07537689,-0.3356003,77.65395536,12.84791934,1.52
152145616866,0.36011046,-0.14599761,8.468816,0.053086855,-0.12367706,-0.3650528,77.65395536,12.84791934,1.52
152145616888,-0.69752806,-1.236319,11.243576,0.2814804,-0.08218231,-0.27301177,77.65395536,12.84791934,1.52
152145616910,-0.15655823,-0.56318665,8.639166,-0.1421814,-0.108177185,-0.010902405,77.65393616,12.84791638,1.54
152145616932,-0.015539551,-1.0948212,10.59786,-0.025160218,-0.036590576,-0.037005614,77.65393616,12.84791638,1.54
152145616954,0.05545044,0.37617952,9.130574,-0.09206085,-0.077122495,0.028407287,77.65393616,12.84791638,1.54
152145616976,-0.008474732,0.020280456,9.869426,0.13175964,0.049705505,0.09328461,77.65393616,12.84791638,1.54
152145616998,0.59857637,-0.005337524,9.386515,-0.05355072,0.008901978,0.0089675905,77.65391855,12.84791292,1.56
152145617020,0.13960418,0.12969513,10.067067,-0.11890564,-0.06279602,-0.07348938,77.65391855,12.84791292,1.56
152145617042,0.11973266,-0.16527252,10.127403,0.022724915,-0.07430267,-0.011701966,77.65391855,12.84791292,1.56
152145617064,-0.1480606,0.17650299,10.106212,0.17660522,-0.074884035,0.04763794,77.65391855,12.84791292,1.56
152145617086,-0.32762757,-0.12732391,10.415062,0.057026673,-0.040530395,0.22180787,77.65391855,12.84791292,1.56
152145617108,0.024319459,-0.053219605,9.616835,-0.034698486,0.019502258,0.2651642,77.65389888,12.84790998,1.57
152145617130,0.02312622,0.1990036,9.305949,0.007119751,0.028504943,0.20364532,77.65389888,12.84790998,1.57
152145617152,-0.22000733,0.20032501,9.638863,0.06858826,0.12038269,0.22734527,77.65389888,12.84790998,1.57
152145617174,0.2679352,-0.2204605,9.692612,-0.13855895,0.2193985,0.2095581,77.65389888,12.84790998,1.57
152145617196,0.77203524,-0.4427597,9.591219,-0.060794067,0.23921509,-0.060969543,77.65387577,12.84790358,1.64
152145617218,1.3625641,-0.4260025,10.375559,-0.0049713133,0.07772064,-0.39296418,77.65387577,12.84790358,1.64
152145617240,0.18880463,-0.80943453,9.73631,0.03284607,-0.09299469,-0.47701263,77.65387577,12.84790358,1.64
152145617262,0.11793671,-0.21950074,9.49629,0.08248749,-0.1623474,-0.3039612,77.65387577,12.84790358,1.64
152145617285,-0.16134949,-0.39331818,10.863855,0.20153351,-0.18540803,-0.18710175,77.65387577,12.84790358,1.64
152145617307,-0.45427856,-0.34088594,9.1294985,0.03588562,-0.16852264,0.06297608,77.65385737,12.8479039,1.66
152145617329,0.07184601,-0.9277069,9.033132,-0.2065216,-0.09390259,0.2347519,77.65385737,12.8479039,1.66
152145617351,-0.051214598,-0.4140274,11.684108,-0.15496063,-0.009849548,0.26409912,77.65385737,12.8479039,1.66
152145617373,-0.04881897,-0.0061782836,9.322711,0.21346435,0.11234131,0.2904129,77.65385737,12.8479039,1.66
152145617395,0.05592804,-0.41474763,11.937777,0.16968079,0.20784149,0.16423035,77.65383263,12.84790255,1.77
152145617417,0.90383756,0.15770721,8.341924,-0.12412109,0.19468841,0.047743224,77.65383263,12.84790255,1.77
152145617439,1.3359878,-0.8809021,10.606122,-0.1314743,0.055451967,-0.315094,77.65383263,12.84790255,1.77
152145617461,0.3653763,0.017404174,8.812144,-0.020953368,-0.19265136,-0.45394897,77.65383263,12.84790255,1.77
152145617483,-1.3864625,-0.15952606,10.353055,0.3297394,-0.096617125,-0.11434021,77.65383263,12.84790255,1.77
152145617505,-0.0012954712,-0.1834671,9.694768,-0.08614655,0.014761353,0.1982666,77.65380496,12.84790177,1.81
152145617527,0.42080688,-0.021018982,9.681841,-0.037728883,0.107600406,0.07187195,77.65380496,12.84790177,1.81
152145617549,0.9311279,-0.4152252,8.733139,-0.13344574,-0.02870636,-0.12606049,77.65380496,12.84790177,1.81
152145617571,-0.03792877,-0.25553435,10.723318,-0.034959413,-0.0839447,-0.14449005,77.65380496,12.84790177,1.81
152145617593,0.02552185,-0.28546447,9.667117,0.09431763,-0.08708344,0.029902648,77.65377784,12.84790299,1.86
152145617615,0.08669281,-0.7125885,10.349222,0.08600769,-0.0384552,0.037089538,77.65377784,12.84790299,1.86
152145617637,0.31821594,-0.37655792,9.538304,-0.05205841,-0.016296387,0.108039856,77.65377784,12.84790299,1.86
152145617659,0.10536499,-0.271933,10.03127,0.13692626,0.010604858,0.05855713,77.65377784,12.84790299,1.86
152145617681,0.016062927,-0.4416809,9.176427,-0.060047913,0.042303465,0.1780304,77.65377784,12.84790299,1.86
152145617703,0.5214844,-0.6615906,11.194616,-0.16332856,0.093006894,0.096537784,77.65375181,12.84790613,1.9
152145617725,1.1093811,-0.25242463,8.24364,0.15349121,-0.060343932,-0.12004089,77.65375181,12.84790613,1.9
152145617747,-0.25256807,-1.0868027,11.549913,0.10832367,-0.13124084,-0.090322874,77.65375181,12.84790613,1.9
152145617769,0.16845398,-0.7367691,10.005539,-0.20982361,-0.13981476,0.1964035,77.65375181,12.84790613,1.9
152145617791,-0.10676117,-0.8164978,11.975247,0.08414154,0.0037323,0.2249527,77.65375181,12.84790613,1.9
152145617813,0.101774596,-0.65536654,8.201147,0.16728516,0.009379578,0.328067,77.65372694,12.84790939,1.94
152145617835,0.464859,-1.1666504,10.750134,-0.20748138,0.041555785,0.23277894,77.65372694,12.84790939,1.94
152145617857,0.46629637,-0.74359435,9.48288,-0.20753631,-0.051875304,0.1138443,77.65372694,12.84790939,1.94
152145617879,-0.16709137,-0.42241058,9.346173,0.33868712,-0.0044174194,0.20455018,77.65372694,12.84790939,1.94
152145617901,0.17228393,-0.56031954,10.12752,0.10427551,0.060835265,0.24945374,77.65370287,12.84790981,1.96
152145617923,0.0042129518,-1.299649,10.767247,-0.10633087,0.1120224,0.28242034,77.65370287,12.84790981,1.96
152145617945,0.858226,-0.70205534,8.57536,0.029917907,0.13311157,0.20780182,77.65370287,12.84790981,1.96
152145617968,0.7628174,-0.665184,10.280508,0.047496032,0.12363128,0.0036346435,77.65370287,12.84790981,1.96
152145617990,0.85595244,-1.6024002,9.877565,-0.07693329,0.070315555,-0.15818024,77.65370287,12.84790981,1.96
152145618012,0.38297576,-1.7734619,9.652151,-0.011154175,-0.023220826,-0.2865967,77.6536781,12.84790964,2.01
152145618001,-0.022364806,-2.4602418,9.772818,0.026135255,-0.09491424,-0.2410553,77.6536781,12.84790964,2.01
152145618023,0.09579315,-2.0738144,9.895163,0.021292115,-0.080374144,-0.13607483,77.6536781,12.84790964,2.01
152145618045,0.14152375,-2.17509,9.538902,0.0042434693,-0.018214416,0.013119507,77.6536781,12.84790964,2.01
152145618067,0.61880493,-1.5300903,9.889296,0.0029647828,-0.022584533,0.017913818,77.65365393,12.84790951,1.98
152145618089,0.33293915,-0.22393188,9.780481,0.0017929077,-0.0075057982,-0.017189026,77.65365393,12.84790951,1.98
152145618111,0.30720672,-0.2475113,9.882833,0.008718872,0.04112854,-0.001208496,77.65365393,12.84790951,1.98
152145618133,0.2630295,-0.307724,9.830042,-0.0048690797,0.031593323,0.002572632,77.65365393,12.84790951,1.98
152145618155,0.14822693,-0.30628815,9.798677,-0.004385376,0.043258667,-6.225586E-4,77.65365393,12.84790951,1.98
152145618178,-9.338379E-4,-0.30221862,9.797,-0.0014083863,0.054496765,-5.6762696E-4,77.65363844,12.84790791,0.0
152145618199,-0.044509888,-0.2592438,9.834589,-3.3874513E-4,0.0059158327,-1.4343261E-4,77.65363844,12.84790791,0.0
152145618221,-0.06988831,-0.25134125,9.835428,0.0033889771,0.026051331,-0.008825684,77.65363844,12.84790791,0.0
